time,orientation_x,orientation_y,orientation_z,orientation_w,angular_velocity_x,angular_velocity_y,angular_velocity_z,linear_acceleration_x,linear_acceleration_y,linear_acceleration_z
1687389613.821386,-7.894166683708699e-05,1.2721474885191898e-08,-9.449652569876314e-06,0.9999999968394587,-2.7656555897296603e-05,7.887243554316267e-07,2.6965039280340293e-06,6.888915432712356e-10,-8.466734993295104e-11,1.4332398220248e-10
1687389613.831386,-7.894166683821118e-05,1.2721501867820272e-08,-9.449657600802071e-06,0.9999999968394586,-2.765655465278715e-05,7.887433068110255e-07,2.6965355105373787e-06,6.91234140471047e-10,-8.462867939152927e-11,1.4198700803251683e-10
1687389613.841386,-7.894166683930121e-05,1.2721528790994182e-08,-9.449662631838782e-06,0.9999999968394585,-2.7656553443656803e-05,7.887622604983863e-07,2.696566997481878e-06,6.893775979444788e-10,-8.384705337205908e-11,1.4238885060429197e-10
1687389613.851386,-7.894166684038304e-05,1.2721555768423615e-08,-9.449667662975732e-06,0.9999999968394586,-2.7656552251401724e-05,7.887812020159119e-07,2.6965985448496185e-06,6.89874547967055e-10,-8.423510339661257e-11,1.420878499169171e-10
1687389613.861386,-7.89416668415285e-05,1.2721582810369974e-08,-9.449672694159047e-06,0.9999999968394585,-2.765655102143068e-05,7.888000954720936e-07,2.696630166648631e-06,6.903480831450811e-10,-8.182248992788586e-11,1.432637516232362e-10
1687389613.871386,-7.894166684267197e-05,1.2721609784004942e-08,-9.4496777254823e-06,0.9999999968394584,-2.7656549791007375e-05,7.888190643277151e-07,2.6966617317281605e-06,6.902845656636222e-10,-8.527277065857271e-11,1.4251117378355232e-10
1687389613.881386,-7.894166684376963e-05,1.2721636765609167e-08,-9.44968275694401e-06,0.9999999968394584,-2.7656548577253946e-05,7.888379914839874e-07,2.6966933177546604e-06,6.898757343174296e-10,-8.708069289979143e-11,1.4174540686349004e-10
1687389613.891386,-7.894166684484055e-05,1.2721663868966448e-08,-9.449687788457327e-06,0.9999999968394584,-2.7656547392692274e-05,7.888569015812347e-07,2.696724963306915e-06,6.895794689455294e-10,-8.420915854561437e-11,1.4226018298464468e-10
1687389613.901386,-7.894166684598792e-05,1.2721690840027585e-08,-9.44969282012315e-06,0.9999999968394583,-2.7656546178986516e-05,7.888758561811332e-07,2.6967565457482943e-06,6.908539256993556e-10,-8.314512496253184e-11,1.4313123748202767e-10
1687389613.911386,-7.894166684710736e-05,1.2721717904159459e-08,-9.449697851731606e-06,0.9999999968394582,-2.7656544914137654e-05,7.888947215886855e-07,2.6967882120358966e-06,6.890192212406654e-10,-8.394822818005388e-11,1.4347005587731617e-10
1687389613.921386,-7.894166684820823e-05,1.2721744860931184e-08,-9.449702883390448e-06,0.9999999968394583,-2.7656543686126817e-05,7.889136612828091e-07,2.6968197248684363e-06,6.900481167496024e-10,-8.287298219780998e-11,1.4084631669580443e-10
1687389613.931386,-7.894166684938442e-05,1.2721771865268977e-08,-9.44970791524717e-06,0.9999999968394582,-2.7656542433660398e-05,7.889326095288866e-07,2.696851339603109e-06,6.910460919933359e-10,-8.432139272720953e-11,1.4540308799454925e-10
1687389613.941386,-7.894166685052692e-05,1.2721798834515747e-08,-9.449712947152277e-06,0.9999999968394581,-2.7656541211120886e-05,7.88951525863783e-07,2.6968829092115665e-06,6.898158504827999e-10,-8.460145208255712e-11,1.4299334584094854e-10
1687389613.951386,-7.894166685162419e-05,1.2721825877142006e-08,-9.449717979087701e-06,0.9999999968394581,-2.765654001618263e-05,7.88970348715707e-07,2.6969145487163987e-06,6.880143699565673e-10,-8.612834650399872e-11,1.4141968232633798e-10
1687389613.961386,-7.894166685275775e-05,1.2721852809121004e-08,-9.449723011278701e-06,0.9999999968394581,-2.7656538769235996e-05,7.889893413962833e-07,2.6969460459737466e-06,6.909104348885309e-10,-8.293488926673261e-11,1.427643185688495e-10
1687389613.9713862,-7.894166685389247e-05,1.2721879759021976e-08,-9.449728043580149e-06,0.999999996839458,-2.7656537563135245e-05,7.890082936784587e-07,2.696977565227325e-06,6.893871416900848e-10,-8.399531180929318e-11,1.4193740730799148e-10
1687389613.9813862,-7.894166685494706e-05,1.2721906827472594e-08,-9.449733075869972e-06,0.9999999968394578,-2.7656536378577053e-05,7.890272106147786e-07,2.697009194164645e-06,6.895964942985338e-10,-8.782427418041701e-11,1.408625179916046e-10
1687389613.9913862,-7.894166685606635e-05,1.2721933796056656e-08,-9.449738108357231e-06,0.999999996839458,-2.7656535157212433e-05,7.89046104379704e-07,2.6970407647367766e-06,6.897029062792527e-10,-8.236868601544125e-11,1.4318325099042315e-10
1687389614.0013862,-7.894166685724168e-05,1.2721960868344432e-08,-9.449743140840525e-06,0.9999999968394578,-2.7656533901258664e-05,7.8906503292767e-07,2.6970724023597413e-06,6.906598811871307e-10,-8.203482960104205e-11,1.4350322153585925e-10
1687389614.0113862,-7.894166685836343e-05,1.2721987878165402e-08,-9.449748173383335e-06,0.9999999968394577,-2.7656532691243215e-05,7.890839872460444e-07,2.697103966304114e-06,6.905271505116323e-10,-8.673491710393454e-11,1.417134497732016e-10
1687389614.0213861,-7.894166685948369e-05,1.2722014847645786e-08,-9.449753206022982e-06,0.9999999968394577,-2.7656531472880554e-05,7.891029139532935e-07,2.6971355649747852e-06,6.897514399358941e-10,-8.307474042437856e-11,1.426585559197543e-10
1687389614.0313861,-7.894166686055925e-05,1.2722041911057682e-08,-9.449758238723475e-06,0.9999999968394577,-2.765653024116064e-05,7.891218356361805e-07,2.6971671459405246e-06,6.903046573362636e-10,-8.498510496488584e-11,1.4101051071603435e-10
1687389614.0413861,-7.89416668616736e-05,1.2722068878656246e-08,-9.449763271499702e-06,0.9999999968394576,-2.7656529044109218e-05,7.891407209680969e-07,2.6971987455368937e-06,6.888882344697274e-10,-8.627602599666679e-11,1.4235748443579872e-10
1687389614.051386,-7.894166686274291e-05,1.2722095846538876e-08,-9.449768304536154e-06,0.9999999968394575,-2.7656527855676094e-05,7.89159677433718e-07,2.6972303146335263e-06,6.898976119743759e-10,-8.425272528670188e-11,1.4162122461298016e-10
1687389614.061386,-7.894166686384731e-05,1.2722122927268235e-08,-9.44977333751223e-06,0.9999999968394576,-2.765652661351111e-05,7.891785403625817e-07,2.697261984326698e-06,6.895881280501326e-10,-8.247432801728668e-11,1.4135936685090064e-10
1687389614.071386,-7.894166686502078e-05,1.2722149902059348e-08,-9.449778370632826e-06,0.9999999968394575,-2.7656525395736348e-05,7.891975143461516e-07,2.697293446523747e-06,6.903057583875133e-10,-8.275823720775281e-11,1.4484878865912956e-10
1687389614.081386,-7.894166686608589e-05,1.272217692112866e-08,-9.449783403797676e-06,0.9999999968394574,-2.765652419693789e-05,7.892164156349916e-07,2.6973251327011244e-06,6.897847031369197e-10,-8.552136102426714e-11,1.4101392880914883e-10
1687389614.091386,-7.894166686724867e-05,1.2722203843548416e-08,-9.449788437121953e-06,0.9999999968394574,-2.7656522956650837e-05,7.892353460413275e-07,2.697356626867446e-06,6.893519592046266e-10,-8.50020055550524e-11,1.4285012940312755e-10
1687389614.101386,-7.894166686836469e-05,1.2722230947275442e-08,-9.449793470427394e-06,0.9999999968394574,-2.7656521735591055e-05,7.892543277687492e-07,2.6973883027833195e-06,6.916198184217774e-10,-8.257309398955305e-11,1.426270324324275e-10
1687389614.111386,-7.89416668694388e-05,1.2722257925889654e-08,-9.449798503906096e-06,0.9999999968394573,-2.7656520522141324e-05,7.892732289334511e-07,2.6974198478497755e-06,6.885539152351506e-10,-8.746458982297287e-11,1.4022504046997277e-10
1687389614.121386,-7.894166687056917e-05,1.2722284907791331e-08,-9.449803537410555e-06,0.9999999968394572,-2.765651926393776e-05,7.89292125125646e-07,2.697451468588297e-06,6.903190332884832e-10,-7.989633303852971e-11,1.4433362622326398e-10
1687389614.131386,-7.894166687175033e-05,1.2722311882310026e-08,-9.44980857110468e-06,0.9999999968394573,-2.7656518071277526e-05,7.893110784042803e-07,2.697483031142724e-06,6.907433908596413e-10,-8.857323642508785e-11,1.4427662067176879e-10
1687389614.141386,-7.894166687286718e-05,1.2722338854833482e-08,-9.449813604933217e-06,0.9999999968394572,-2.765651685392129e-05,7.89329985958483e-07,2.6975145645733607e-06,6.89395471025018e-10,-8.148760669748867e-11,1.421312421382462e-10
1687389614.151386,-7.894166687397006e-05,1.2722365874263235e-08,-9.449818638769522e-06,0.9999999968394571,-2.7656515600790098e-05,7.893489405382278e-07,2.697546187326988e-06,6.906544659995135e-10,-8.379032041357547e-11,1.4208089769748286e-10
1687389614.161386,-7.894166687515033e-05,1.2722392881608548e-08,-9.449823672844406e-06,0.9999999968394571,-2.7656514389951984e-05,7.893678454861453e-07,2.697577769382176e-06,6.899770122824888e-10,-8.417480641905695e-11,1.455377459991491e-10
1687389614.171386,-7.894166687623958e-05,1.2722419931342763e-08,-9.44982870689978e-06,0.9999999968394571,-2.765651312786923e-05,7.89386735366076e-07,2.6976094518345607e-06,6.894299713099484e-10,-8.379592038938908e-11,1.4054229052123187e-10
1687389614.181386,-7.894166687735957e-05,1.2722446921874406e-08,-9.449833740911156e-06,0.999999996839457,-2.7656511930079417e-05,7.894056984926162e-07,2.6976409777330504e-06,6.901963385820865e-10,-8.694909504828378e-11,1.4184475642568987e-10
1687389614.191386,-7.894166687843239e-05,1.2722473946825967e-08,-9.4498387750226e-06,0.9999999968394568,-2.765651072829084e-05,7.894245787441299e-07,2.6976725735443842e-06,6.887429224532136e-10,-8.388291862678834e-11,1.4127029827037448e-10
1687389614.201386,-7.894166687962032e-05,1.2722500911095689e-08,-9.449843809210305e-06,0.999999996839457,-2.765650950699393e-05,7.894434998687211e-07,2.697704109389298e-06,6.89607041101421e-10,-8.271604070994786e-11,1.4478090841739539e-10
1687389614.211386,-7.89416668807382e-05,1.2722527971630793e-08,-9.449848843413657e-06,0.9999999968394568,-2.7656508228823024e-05,7.894624083064538e-07,2.697735782587445e-06,6.909271997068458e-10,-8.472545366008705e-11,1.4209202270969335e-10
1687389614.2213862,-7.894166688179801e-05,1.272255493701081e-08,-9.44985387775632e-06,0.9999999968394567,-2.7656507073120527e-05,7.894813267760047e-07,2.6977673370902143e-06,6.887857717610815e-10,-8.665987447592238e-11,1.4121887812775574e-10
1687389614.2313862,-7.894166688294946e-05,1.2722581849318525e-08,-9.44985891249194e-06,0.9999999968394567,-2.7656505871523325e-05,7.895003412724348e-07,2.6977988021278426e-06,6.914279526751591e-10,-8.105473743737242e-11,1.4407892128341922e-10
1687389614.2413862,-7.894166688405758e-05,1.2722608850769254e-08,-9.449863947385218e-06,0.9999999968394567,-2.7656504619160576e-05,7.895193518560759e-07,2.697830398372161e-06,6.918965397894774e-10,-8.573674847157714e-11,1.4021262333175978e-10
1687389614.2513862,-7.894166688509728e-05,1.2722635919541638e-08,-9.44986898231775e-06,0.9999999968394566,-2.7656503437818215e-05,7.895382533159257e-07,2.697862047131259e-06,6.894447084313455e-10,-8.582995767967266e-11,1.4107794445257176e-10
1687389614.2613862,-7.894166688621773e-05,1.2722662950207323e-08,-9.449874017155876e-06,0.9999999968394565,-2.7656502207817274e-05,7.895571733949356e-07,2.697893647608617e-06,6.896677440992061e-10,-8.060515305336125e-11,1.432586188689639e-10
1687389614.2713861,-7.894166688735774e-05,1.2722690007263932e-08,-9.44987905204389e-06,0.9999999968394566,-2.7656500976396795e-05,7.895760482885826e-07,2.6979252908541756e-06,6.897867000473743e-10,-8.678311400562008e-11,1.4128551246514093e-10
1687389614.2813861,-7.894166688849175e-05,1.272271701664708e-08,-9.449884087141529e-06,0.9999999968394565,-2.7656499753038188e-05,7.895950393455084e-07,2.6979568325619305e-06,6.912128661666513e-10,-8.207387399820119e-11,1.4461097755600066e-10
1687389614.2913861,-7.894166688957522e-05,1.2722744015726709e-08,-9.449889122303528e-06,0.9999999968394564,-2.7656498531622018e-05,7.896139555627309e-07,2.697988420944679e-06,6.888396897829762e-10,-8.598799284292448e-11,1.405239930940764e-10
1687389614.301386,-7.894166689072254e-05,1.27227710280728e-08,-9.449894157612485e-06,0.9999999968394564,-2.765649731247562e-05,7.896328542697337e-07,2.6980199916492288e-06,6.897261765099688e-10,-8.444568371804968e-11,1.4365601069714064e-10
1687389614.311386,-7.894166689184793e-05,1.2722798031226461e-08,-9.449899192910712e-06,0.9999999968394564,-2.7656496083789886e-05,7.896518077169332e-07,2.698051613556501e-06,6.900660373281837e-10,-8.389468140376332e-11,1.415567058208945e-10
1687389614.321386,-7.894166689297552e-05,1.272282505010471e-08,-9.449904228213019e-06,0.9999999968394563,-2.7656494843501727e-05,7.896706960745243e-07,2.6980832368040018e-06,6.901041382167137e-10,-8.203467909694242e-11,1.4468858282513325e-10
1687389614.331386,-7.894166689406768e-05,1.2722852028445062e-08,-9.449909263637728e-06,0.9999999968394562,-2.765649364018023e-05,7.896896200654947e-07,2.6981148025823315e-06,6.894597265338805e-10,-8.643340938575164e-11,1.4176670428767574e-10
1687389614.341386,-7.894166689522332e-05,1.2722879094349551e-08,-9.449914299130066e-06,0.9999999968394563,-2.7656492374375203e-05,7.897085649430914e-07,2.698146440406611e-06,6.909486847981404e-10,-8.268620323373547e-11,1.4315171234731654e-10
1687389614.351386,-7.894166689632922e-05,1.272290602045023e-08,-9.449919334781024e-06,0.9999999968394562,-2.7656491210491916e-05,7.897274884897718e-07,2.6981779630682663e-06,6.899021861139831e-10,-8.737637714938765e-11,1.4228207433438734e-10
1687389614.361386,-7.894166689746218e-05,1.2722933029173561e-08,-9.449924370565613e-06,0.9999999968394561,-2.765648997483944e-05,7.89746387682447e-07,2.698209532975479e-06,6.889905223054491e-10,-8.190862992995908e-11,1.4391159707059677e-10
1687389614.371386,-7.894166689858845e-05,1.2722960046041961e-08,-9.449929406435002e-06,0.9999999968394561,-2.7656488745521675e-05,7.897653768913032e-07,2.6982411624571995e-06,6.915512573849917e-10,-8.632656668808644e-11,1.423659301458684e-10
1687389614.381386,-7.894166689973556e-05,1.2722987064090353e-08,-9.449934442379744e-06,0.9999999968394561,-2.7656487515914554e-05,7.897842792450818e-07,2.6982727328302107e-06,6.895608783172699e-10,-8.37838429331519e-11,1.4291700412199217e-10
1687389614.391386,-7.894166690082416e-05,1.2723014166582243e-08,-9.44993947822423e-06,0.999999996839456,-2.7656486267654114e-05,7.898031658414027e-07,2.6983044042740304e-06,6.897394705027445e-10,-8.3547842552671e-11,1.4195379161954172e-10
1687389614.401386,-7.894166690191823e-05,1.272304111597926e-08,-9.449944514277858e-06,0.9999999968394558,-2.7656485069543296e-05,7.898220854685244e-07,2.6983359916947384e-06,6.901383218639532e-10,-8.500005899483042e-11,1.4124007527461382e-10
1687389614.411386,-7.894166690307577e-05,1.2723068150320002e-08,-9.449949550426083e-06,0.9999999968394558,-2.7656483846159414e-05,7.898410689324832e-07,2.6983675878962423e-06,6.915426059894793e-10,-8.50281062329025e-11,1.4469298851114053e-10
1687389614.421386,-7.894166690419867e-05,1.2723095090338689e-08,-9.449954586733138e-06,0.9999999968394558,-2.7656482633522785e-05,7.898600198025241e-07,2.6983991052603617e-06,6.896754892875378e-10,-8.35391645856937e-11,1.4275923897282695e-10
1687389614.431386,-7.894166690531864e-05,1.2723122079786492e-08,-9.449959623087094e-06,0.9999999968394558,-2.765648143672909e-05,7.898789344897619e-07,2.698430703594893e-06,6.899505119684192e-10,-8.395349920156921e-11,1.4341577389775392e-10
1687389614.441386,-7.894166690645789e-05,1.2723149145666701e-08,-9.44996465947268e-06,0.9999999968394557,-2.7656480149657705e-05,7.898978427902821e-07,2.6984623842290767e-06,6.905348987277808e-10,-8.35793435576857e-11,1.4215104564441438e-10
1687389614.451386,-7.894166690759858e-05,1.2723176075080351e-08,-9.44996969596204e-06,0.9999999968394556,-2.7656478917902407e-05,7.89916737749991e-07,2.6984938774688355e-06,6.885126616059961e-10,-8.570309407193394e-11,1.416996188556308e-10
1687389614.461386,-7.894166690870652e-05,1.2723203089368045e-08,-9.449974732593824e-06,0.9999999968394556,-2.7656477712355792e-05,7.899357031868453e-07,2.698525459553844e-06,6.907000212684662e-10,-8.368874282985201e-11,1.4322316506310376e-10
1687389614.4713862,-7.894166690983301e-05,1.2723230140451143e-08,-9.449979769295093e-06,0.9999999968394556,-2.7656476488840257e-05,7.899545806629439e-07,2.698557108606388e-06,6.894605829070076e-10,-8.44308074021132e-11,1.437776167071778e-10
1687389614.4813862,-7.894166691098105e-05,1.2723257207674643e-08,-9.449984806023685e-06,0.9999999968394556,-2.7656475264158914e-05,7.899734994925092e-07,2.698588792644975e-06,6.91015339947081e-10,-8.584877174951818e-11,1.428263821387238e-10
1687389614.4913862,-7.894166691211763e-05,1.272328409830477e-08,-9.449989842842764e-06,0.9999999968394554,-2.765647400683551e-05,7.899924531865216e-07,2.698620269002098e-06,6.899683952186686e-10,-8.151252314051096e-11,1.4184007203868932e-10
1687389614.5013862,-7.89416669132106e-05,1.2723311123110876e-08,-9.44999487991768e-06,0.9999999968394554,-2.7656472810938365e-05,7.900114109959022e-07,2.6986518782813837e-06,6.90648733451879e-10,-8.539425693585666e-11,1.4297128888808204e-10
1687389614.5113862,-7.894166691429479e-05,1.2723338102349558e-08,-9.449999917120578e-06,0.9999999968394554,-2.7656471641198712e-05,7.900303688891885e-07,2.698683405276588e-06,6.898734906811511e-10,-8.827887520761189e-11,1.4111927479291784e-10
1687389614.5213861,-7.894166691531468e-05,1.2723365141527636e-08,-9.450004954379161e-06,0.9999999968394554,-2.7656470411573773e-05,7.900492712244329e-07,2.698714997618053e-06,6.888171338921184e-10,-8.297260996365569e-11,1.3854970271046124e-10
1687389614.5313861,-7.894166691654189e-05,1.2723392175637332e-08,-9.450009991685426e-06,0.9999999968394553,-2.765646917577823e-05,7.900682127870171e-07,2.6987466286177164e-06,6.907838852526356e-10,-8.27190319768964e-11,1.462823648987502e-10
1687389614.5413861,-7.894166691765294e-05,1.2723419150403164e-08,-9.450015029118986e-06,0.9999999968394552,-2.765646795426042e-05,7.90087144346609e-07,2.6987782055011203e-06,6.90319668604936e-10,-8.699737267321359e-11,1.4206519335898622e-10
1687389614.551386,-7.89416669187948e-05,1.2723446175934627e-08,-9.450020066567444e-06,0.9999999968394552,-2.7656466723295002e-05,7.901060431507305e-07,2.69880983605111e-06,6.893400363526796e-10,-8.126771757491143e-11,1.4295396187351153e-10
1687389614.561386,-7.89416669198855e-05,1.2723473166910462e-08,-9.45002510417135e-06,0.9999999968394552,-2.7656465503966497e-05,7.901250035388612e-07,2.6988413540446113e-06,6.905285365714067e-10,-8.486980124421999e-11,1.420461307324613e-10
1687389614.571386,-7.894166692100098e-05,1.2723500122493612e-08,-9.45003014189453e-06,0.9999999968394552,-2.7656464341914543e-05,7.90143938855669e-07,2.698872916303102e-06,6.89723270652417e-10,-8.387521463000368e-11,1.4248094801919117e-10
1687389614.581386,-7.894166692213938e-05,1.2723527234122471e-08,-9.450035179698226e-06,0.9999999968394551,-2.7656463086478077e-05,7.901628741870252e-07,2.698904568942903e-06,6.908453344533034e-10,-8.266427229562188e-11,1.4256893344033844e-10
1687389614.591386,-7.894166692330586e-05,1.2723554290168001e-08,-9.45004021754065e-06,0.999999996839455,-2.7656461826040447e-05,7.90181789897984e-07,2.6989361969188394e-06,6.906258119372952e-10,-8.667389362317988e-11,1.4346288252317577e-10
1687389614.601386,-7.894166692438043e-05,1.2723581298269658e-08,-9.450045255466098e-06,0.999999996839455,-2.765646064169284e-05,7.9020069066492e-07,2.6989677813004653e-06,6.891196914413856e-10,-8.557150800191217e-11,1.4226871645850192e-10
1687389614.611386,-7.894166692548687e-05,1.2723608261289927e-08,-9.450050293493936e-06,0.999999996839455,-2.765645940468841e-05,7.902196210918277e-07,2.6989993034591774e-06,6.89257069524308e-10,-8.054292573604381e-11,1.4263184532295724e-10
1687389614.621386,-7.894166692657718e-05,1.2723635288825417e-08,-9.450055331657815e-06,0.999999996839455,-2.7656458163119115e-05,7.902386043087387e-07,2.6990309417153e-06,6.919705581787739e-10,-8.792014171019347e-11,1.4190598025626085e-10
1687389614.631386,-7.894166692774819e-05,1.2723662344351911e-08,-9.450060369655128e-06,0.9999999968394547,-2.765645694909886e-05,7.902574359250272e-07,2.6990625793808942e-06,6.887399293930231e-10,-8.291870584425489e-11,1.4290880617037263e-10
1687389614.641386,-7.894166692887393e-05,1.272368936375372e-08,-9.450065407685144e-06,0.9999999968394547,-2.765645574019821e-05,7.902763531486539e-07,2.6990941786467177e-06,6.897851927411222e-10,-8.33122925250365e-11,1.4408265284397764e-10
1687389614.651386,-7.894166692999668e-05,1.2723716363734176e-08,-9.450070445900852e-06,0.9999999968394547,-2.76564544953067e-05,7.902952620959988e-07,2.6991257367667684e-06,6.894958085540987e-10,-8.686779375685691e-11,1.4020725491855494e-10
1687389614.661386,-7.894166693112587e-05,1.2723743371368595e-08,-9.450075484216025e-06,0.9999999968394547,-2.7656453267313878e-05,7.90314199511777e-07,2.6991573392902395e-06,6.89971965463764e-10,-8.149036503704721e-11,1.4266568172793222e-10
1687389614.671386,-7.894166693227358e-05,1.2723770311558833e-08,-9.45008052265994e-06,0.9999999968394546,-2.7656452080244267e-05,7.903331356249512e-07,2.699188909325623e-06,6.901964324052263e-10,-8.473203266378622e-11,1.4350276054572857e-10
1687389614.681386,-7.894166693340594e-05,1.2723797374074856e-08,-9.450085561197888e-06,0.9999999968394545,-2.7656450817171155e-05,7.903520488199954e-07,2.6992205598885165e-06,6.906598177568027e-10,-8.519385498486646e-11,1.4240505450878944e-10
1687389614.691386,-7.89416669344961e-05,1.2723824337612452e-08,-9.450090599950513e-06,0.9999999968394545,-2.7656449600588205e-05,7.903709729592798e-07,2.6992521124552888e-06,6.898980471969753e-10,-8.52574337283102e-11,1.4171769783015276e-10
1687389614.701386,-7.894166693567019e-05,1.2723851288977925e-08,-9.450095638823791e-06,0.9999999968394545,-2.765644839923724e-05,7.903898835826072e-07,2.6992836674344956e-06,6.895094621435944e-10,-8.146421522775716e-11,1.4535650582338297e-10
1687389614.711386,-7.894166693676709e-05,1.2723878349898775e-08,-9.450100677685831e-06,0.9999999968394545,-2.7656447117064284e-05,7.904088691382661e-07,2.699315249547047e-06,6.914649213705289e-10,-8.471736687586766e-11,1.406703099699667e-10
1687389614.7213862,-7.894166693790912e-05,1.2723905401937297e-08,-9.450105716598012e-06,0.9999999968394544,-2.765644593251646e-05,7.904277070843751e-07,2.699346912936084e-06,6.880842051754517e-10,-8.639161070960411e-11,1.4238470872478323e-10
1687389614.7313862,-7.894166693899734e-05,1.2723932436545692e-08,-9.450110755619935e-06,0.9999999968394543,-2.7656444744213e-05,7.904466119113134e-07,2.6993785292359705e-06,6.897966220086854e-10,-8.551100635220376e-11,1.4292404798611042e-10
1687389614.7413862,-7.894166694009534e-05,1.2723959417914898e-08,-9.450115794801942e-06,0.9999999968394543,-2.76564435500239e-05,7.904655871296261e-07,2.6994100634363843e-06,6.912278145756496e-10,-8.562792968086867e-11,1.4157553386534395e-10
1687389614.7513862,-7.894166694124502e-05,1.2723986354376988e-08,-9.45012083415462e-06,0.9999999968394543,-2.7656442307956158e-05,7.904845571075704e-07,2.699441629799245e-06,6.905958320394279e-10,-8.28779791505403e-11,1.4346730967472245e-10
1687389614.7613862,-7.894166694238057e-05,1.2724013450409366e-08,-9.450125873454119e-06,0.9999999968394543,-2.7656441072164036e-05,7.905034489322051e-07,2.6994732785998094e-06,6.891244078790141e-10,-8.451411511219188e-11,1.4259922813036728e-10
1687389614.7713861,-7.894166694345194e-05,1.2724040473274545e-08,-9.450130912983439e-06,0.9999999968394541,-2.7656439827799717e-05,7.905224210375058e-07,2.6995048502763125e-06,6.91174786298879e-10,-8.334810909814825e-11,1.413302712818903e-10
1687389614.7813861,-7.894166694456165e-05,1.2724067471285853e-08,-9.4501359525311e-06,0.9999999968394541,-2.765643862331267e-05,7.90541378610845e-07,2.6995364548243245e-06,6.906923058462581e-10,-8.607813582420951e-11,1.426747549056791e-10
1687389614.7913861,-7.894166694574439e-05,1.272409446606192e-08,-9.450140992033923e-06,0.9999999968394541,-2.7656437399792923e-05,7.905602895245834e-07,2.699568091180967e-06,6.899552569739584e-10,-8.204864471523267e-11,1.4504144456287426e-10
1687389614.801386,-7.894166694684454e-05,1.272412143336375e-08,-9.45014603183121e-06,0.9999999968394541,-2.765643614066357e-05,7.905792661187649e-07,2.699599621434222e-06,6.907716291947498e-10,-8.339169737810764e-11,1.405055281127111e-10
1687389614.811386,-7.894166694802838e-05,1.272414845032887e-08,-9.450151071617465e-06,0.999999996839454,-2.7656434924938157e-05,7.905981547339155e-07,2.6996312414894716e-06,6.899294658887973e-10,-8.510122123720487e-11,1.441971287073165e-10
1687389614.821386,-7.894166694912409e-05,1.2724175480357577e-08,-9.450156111516444e-06,0.9999999968394538,-2.765643373098095e-05,7.906170437750415e-07,2.6996629056747072e-06,6.892902988199976e-10,-8.570761307032406e-11,1.4229600223864706e-10
1687389614.831386,-7.894166695022168e-05,1.2724202462572372e-08,-9.450161151561846e-06,0.9999999968394538,-2.7656432504693725e-05,7.906360036842506e-07,2.6996943933217726e-06,6.897274160831922e-10,-8.258825520695105e-11,1.4143692002602867e-10
1687389614.841386,-7.894166695131349e-05,1.2724229406323968e-08,-9.450166191711164e-06,0.9999999968394538,-2.7656431287612937e-05,7.906550194266636e-07,2.6997259676896238e-06,6.915434361773173e-10,-8.540539715216665e-11,1.4379532866743826e-10
1687389614.851386,-7.89416669524731e-05,1.2724256462542647e-08,-9.450171231867465e-06,0.9999999968394538,-2.76564300524833e-05,7.906738885586893e-07,2.6997575894297063e-06,6.893909407943837e-10,-8.38325145164546e-11,1.4351535961757773e-10
1687389614.861386,-7.894166695358341e-05,1.2724283537514846e-08,-9.450176272140013e-06,0.9999999968394537,-2.765642882403056e-05,7.906927796273279e-07,2.6997892836738005e-06,6.895737647542592e-10,-8.782591260338835e-11,1.4150473236815655e-10
1687389614.871386,-7.894166695471475e-05,1.2724310583038018e-08,-9.450181312407389e-06,0.9999999968394536,-2.7656427584178138e-05,7.907117475342447e-07,2.699820847391647e-06,6.915573676003246e-10,-8.101956113364883e-11,1.4241720341771195e-10
1687389614.881386,-7.894166695584118e-05,1.2724337546901093e-08,-9.45018635278556e-06,0.9999999968394536,-2.7656426400357586e-05,7.907306792945507e-07,2.6998523767086263e-06,6.89636820359557e-10,-8.492841951396756e-11,1.4389986553966065e-10
1687389614.891386,-7.894166695699381e-05,1.2724364524138448e-08,-9.450191393301333e-06,0.9999999968394536,-2.7656425134737307e-05,7.907495829553405e-07,2.699884074649197e-06,6.901105720485169e-10,-8.376013269975998e-11,1.4412833287741792e-10
1687389614.901386,-7.894166695813443e-05,1.272439150831954e-08,-9.450196433997314e-06,0.9999999968394536,-2.765642390644729e-05,7.907685752660278e-07,2.6999155899764264e-06,6.909781668611157e-10,-8.486189761671112e-11,1.4242097001525416e-10
1687389614.911386,-7.894166695934898e-05,1.2724418546188809e-08,-9.450201474780111e-06,0.9999999968394534,-2.7656422646378698e-05,7.907874971827165e-07,2.6999472392096217e-06,6.909593847615617e-10,-8.340728236034861e-11,1.4430486776217717e-10
1687389614.921386,-7.894166696047168e-05,1.2724445611783782e-08,-9.450206515544072e-06,0.9999999968394534,-2.765642143890003e-05,7.908063566481488e-07,2.6999788745135694e-06,6.888809005952223e-10,-8.551439972716917e-11,1.4177237391669113e-10
1687389614.931386,-7.89416669615976e-05,1.2724472648939867e-08,-9.450211556284871e-06,0.9999999968394534,-2.765642021220769e-05,7.908253135064446e-07,2.7000105374119214e-06,6.913322761966791e-10,-8.655529110057472e-11,1.4251214094134537e-10
1687389614.941386,-7.894166696265934e-05,1.2724499701705298e-08,-9.450216597150164e-06,0.9999999968394534,-2.7656419005941242e-05,7.908441186958309e-07,2.7000421172609393e-06,6.868414076721374e-10,-8.09761086158695e-11,1.4111730721154338e-10
1687389614.951386,-7.894166696374373e-05,1.2724526642199032e-08,-9.450221638156378e-06,0.9999999968394533,-2.7656417814054903e-05,7.908630762850045e-07,2.7000736260740333e-06,6.905096302656099e-10,-8.405704528741893e-11,1.4124116982087338e-10
1687389614.961386,-7.894166696490557e-05,1.2724553576469544e-08,-9.45022667928445e-06,0.9999999968394532,-2.7656416576688534e-05,7.908820590805783e-07,2.7001052043718407e-06,6.912417630541647e-10,-8.483916977611349e-11,1.4436537631411644e-10
1687389614.9713862,-7.89416669660788e-05,1.2724580662851139e-08,-9.450231720379092e-06,0.9999999968394532,-2.7656415263741536e-05,7.909009766700942e-07,2.700136867505569e-06,6.910236924165559e-10,-8.159584419349503e-11,1.4307296416452703e-10
1687389614.9813862,-7.8941666967141e-05,1.27246076269131e-08,-9.45023676179303e-06,0.9999999968394532,-2.7656414137339254e-05,7.909199436146816e-07,2.7001683652282533e-06,6.899039039407699e-10,-9.00320778502184e-11,1.4141403140883703e-10
1687389614.9913862,-7.894166696825665e-05,1.2724634663457544e-08,-9.450241803206043e-06,0.9999999968394532,-2.765641291845183e-05,7.909388233003976e-07,2.7001999998376462e-06,6.890021462421783e-10,-8.288487530076945e-11,1.4273821075466585e-10
1687389615.0013862,-7.894166696933163e-05,1.272466165263923e-08,-9.45024684483357e-06,0.9999999968394531,-2.7656411699499607e-05,7.909578151853724e-07,2.7002315850784955e-06,6.905815929801796e-10,-8.477032591093482e-11,1.411968027003764e-10
1687389615.0113862,-7.894166697053052e-05,1.2724688664964072e-08,-9.450251886554911e-06,0.999999996839453,-2.765641045269703e-05,7.909767102011952e-07,2.7002632060154786e-06,6.900242507556986e-10,-8.213714164061117e-11,1.442130614854843e-10
1687389615.0213861,-7.894166697164896e-05,1.2724715679235502e-08,-9.450256928333014e-06,0.999999996839453,-2.765640925167151e-05,7.909956746792716e-07,2.7002947677640694e-06,6.906939929872789e-10,-8.490666286666982e-11,1.429900787140284e-10
1687389615.0313861,-7.894166697281464e-05,1.2724742760712353e-08,-9.450261970131038e-06,0.999999996839453,-2.765640800972213e-05,7.910146313429096e-07,2.7003264422469455e-06,6.917031066357237e-10,-8.61510256421562e-11,1.42458296610015e-10
1687389615.0413861,-7.894166697391616e-05,1.2724769697699573e-08,-9.450267012148634e-06,0.999999996839453,-2.7656406802624597e-05,7.91033550695312e-07,2.7003579620295256e-06,6.890025556671619e-10,-8.351235718062288e-11,1.4170175967862688e-10
1687389615.051386,-7.894166697508024e-05,1.2724796740004338e-08,-9.450272054289635e-06,0.9999999968394527,-2.7656405553127858e-05,7.910525029826134e-07,2.7003895893480986e-06,6.912618097327017e-10,-8.170416034807598e-11,1.4421159701184272e-10
1687389615.061386,-7.894166697615379e-05,1.2724823711245529e-08,-9.450277096422157e-06,0.9999999968394527,-2.7656404324410044e-05,7.910714813784234e-07,2.7004211462551266e-06,6.903992020619006e-10,-8.674722119498236e-11,1.4219898015478017e-10
1687389615.071386,-7.894166697731573e-05,1.2724850779527725e-08,-9.450282138520117e-06,0.9999999968394527,-2.765640315546734e-05,7.9109032764709e-07,2.7004528036584476e-06,6.88599052291299e-10,-8.549043054260348e-11,1.4298941877220247e-10
1687389615.081386,-7.89416669783822e-05,1.2724877777725294e-08,-9.450287180782257e-06,0.9999999968394527,-2.7656401905778803e-05,7.911093254292605e-07,2.7004843977183956e-06,6.915503625296266e-10,-8.323618920774165e-11,1.4078475793793625e-10
1687389615.091386,-7.894166697948916e-05,1.2724904783776378e-08,-9.450292223140176e-06,0.9999999968394526,-2.7656400702443886e-05,7.911282583331474e-07,2.700515967737136e-06,6.898930759302149e-10,-8.335721744987469e-11,1.4180892887544614e-10
1687389615.101386,-7.894166698065344e-05,1.2724931793973233e-08,-9.450297265668054e-06,0.9999999968394525,-2.765639950184172e-05,7.911471702261997e-07,2.7005475851725626e-06,6.901050882285704e-10,-8.702278751616653e-11,1.431162995462269e-10
1687389615.111386,-7.894166698181338e-05,1.272495880713666e-08,-9.45030230829623e-06,0.9999999968394525,-2.765639826372678e-05,7.911660952355161e-07,2.7005791632400923e-06,6.894081530495986e-10,-8.113166106366441e-11,1.436361363281647e-10
1687389615.121386,-7.894166698293227e-05,1.272498583014786e-08,-9.450307350954428e-06,0.9999999968394525,-2.765639700093318e-05,7.91185046073688e-07,2.7006107844703457e-06,6.908439777091265e-10,-8.653881918911704e-11,1.407345297461991e-10
1687389615.131386,-7.894166698406451e-05,1.2725012882833095e-08,-9.450312393625656e-06,0.9999999968394525,-2.7656395814325103e-05,7.912039819394392e-07,2.7006424399560735e-06,6.90827507382864e-10,-8.17269248918216e-11,1.442359838163274e-10
1687389615.141386,-7.894166698513722e-05,1.272503983975156e-08,-9.450317436367142e-06,0.9999999968394524,-2.765639461950237e-05,7.912229205456389e-07,2.700673942677679e-06,6.891158081033401e-10,-8.700466424597605e-11,1.4218032749527125e-10
1687389615.151386,-7.894166698628619e-05,1.2725066905790262e-08,-9.450322479232905e-06,0.9999999968394523,-2.7656393322669177e-05,7.912418688795013e-07,2.7007056029317545e-06,6.916269748964138e-10,-8.21382827825255e-11,1.4172188619341788e-10
1687389615.161386,-7.894166698737283e-05,1.2725093928735277e-08,-9.450327522148975e-06,0.9999999968394523,-2.7656392171780003e-05,7.91260809026651e-07,2.7007371813687316e-06,6.899244630439529e-10,-8.790434638701698e-11,1.4303912986685606e-10
1687389615.171386,-7.894166698852603e-05,1.2725120945544962e-08,-9.450332565258903e-06,0.9999999968394523,-2.7656390915833884e-05,7.912797191717736e-07,2.7007687903368376e-06,6.902066442561889e-10,-8.023733962031035e-11,1.428381334298025e-10
1687389615.181386,-7.894166698966366e-05,1.2725147912088949e-08,-9.450337608529799e-06,0.9999999968394523,-2.7656389649169156e-05,7.912987324788014e-07,2.7008003961180923e-06,6.915845905100489e-10,-8.38463779704196e-11,1.4403223023544895e-10
1687389615.191386,-7.894166699079228e-05,1.2725174998652691e-08,-9.450342651751915e-06,0.9999999968394521,-2.7656388484736124e-05,7.913176012971793e-07,2.7008319961629036e-06,6.886175376499895e-10,-8.644048339421753e-11,1.4198987404442814e-10
1687389615.201386,-7.894166699190386e-05,1.2725201960846529e-08,-9.450347695148585e-06,0.9999999968394521,-2.7656387254380514e-05,7.913365217298082e-07,2.7008635616749765e-06,6.900208537465344e-10,-8.387172126221912e-11,1.4218693960709685e-10
1687389615.211386,-7.894166699306321e-05,1.2725229054404263e-08,-9.450352738704957e-06,0.9999999968394521,-2.7656386007700726e-05,7.913554718004245e-07,2.7008952435827642e-06,6.91892048642175e-10,-8.768993418912207e-11,1.427096524875914e-10
1687389615.2213862,-7.89416669941892e-05,1.2725256034175237e-08,-9.450357782297005e-06,0.9999999968394521,-2.765638480014363e-05,7.913744376530575e-07,2.7009267885051442e-06,6.90307619230041e-10,-8.251916097335529e-11,1.438969497993833e-10
1687389615.2313862,-7.894166699531684e-05,1.2725283019204747e-08,-9.450362825842385e-06,0.999999996839452,-2.7656383535189062e-05,7.9139338514566e-07,2.7009584033904534e-06,6.90281734788006e-10,-8.405603705104953e-11,1.4173828585582472e-10
1687389615.2413862,-7.894166699641353e-05,1.2725310024000895e-08,-9.450367869407316e-06,0.9999999968394518,-2.7656382353305898e-05,7.914122708941025e-07,2.700989937481082e-06,6.887634143249133e-10,-8.540642345337895e-11,1.4236103173237141e-10
1687389615.2513862,-7.894166699752483e-05,1.2725337125588954e-08,-9.45037291301241e-06,0.9999999968394518,-2.7656381141307074e-05,7.914311678641851e-07,2.7010216079181737e-06,6.898581593416602e-10,-8.634214708628479e-11,1.4144776010271971e-10
1687389615.2613862,-7.894166699864035e-05,1.2725364148483658e-08,-9.4503779568533e-06,0.9999999968394518,-2.7656379939346956e-05,7.914501031393474e-07,2.701053236708625e-06,6.913212266635295e-10,-8.333198075838868e-11,1.4331987308393903e-10
1687389615.2713861,-7.894166699975561e-05,1.2725391133598302e-08,-9.450383000645589e-06,0.9999999968394518,-2.7656378707778838e-05,7.914690235733059e-07,2.701084779223762e-06,6.889530893742955e-10,-8.468036913535934e-11,1.4150205413635748e-10
1687389615.2813861,-7.894166700091323e-05,1.2725418115171358e-08,-9.450388044697314e-06,0.9999999968394517,-2.7656377471474217e-05,7.914879683460914e-07,2.701116353897423e-06,6.904189827114271e-10,-8.278886787904881e-11,1.4447971784976728e-10
1687389615.2913861,-7.894166700199811e-05,1.2725445130423871e-08,-9.450393088870503e-06,0.9999999968394516,-2.7656376275921168e-05,7.915068750461956e-07,2.7011479896299483e-06,6.893440926749796e-10,-8.369726335382378e-11,1.4100083300589585e-10
1687389615.301386,-7.894166700310539e-05,1.2725472160247716e-08,-9.450398133208028e-06,0.9999999968394516,-2.765637502350316e-05,7.91525869387709e-07,2.701179574886836e-06,6.923030445823078e-10,-8.206149986757563e-11,1.4195726908494823e-10
1687389615.311386,-7.894166700424901e-05,1.2725499180012021e-08,-9.450403177600227e-06,0.9999999968394516,-2.7656373794002814e-05,7.915447987171585e-07,2.7012112522006966e-06,6.899490640794749e-10,-8.447297305961313e-11,1.4388152498479758e-10
1687389615.321386,-7.89416670054233e-05,1.2725526152326028e-08,-9.45040822198775e-06,0.9999999968394516,-2.7656372548847397e-05,7.915636747512129e-07,2.7012427798885447e-06,6.890256250847369e-10,-8.477929242039256e-11,1.4377603137175338e-10
1687389615.331386,-7.894166700657602e-05,1.272555326626779e-08,-9.450413266426774e-06,0.9999999968394514,-2.7656371306685388e-05,7.915826610755524e-07,2.701274432237944e-06,6.92408387727364e-10,-8.569998212834368e-11,1.4292918197011176e-10
1687389615.341386,-7.894166700775017e-05,1.2725580221954968e-08,-9.45041831096527e-06,0.9999999968394514,-2.7656370099645254e-05,7.91601565965317e-07,2.7013060404427706e-06,6.891274859858087e-10,-8.519187581467265e-11,1.4500351316400913e-10
1687389615.351386,-7.894166700889457e-05,1.2725607209458124e-08,-9.450423355616833e-06,0.9999999968394514,-2.7656368892940003e-05,7.916204990970874e-07,2.7013375690349813e-06,6.905724892570878e-10,-8.506268925562986e-11,1.440132515698317e-10
1687389615.361386,-7.89416670099641e-05,1.2725634262145663e-08,-9.450428400325169e-06,0.9999999968394514,-2.7656367611289727e-05,7.916394671460957e-07,2.701369188930384e-06,6.908403684065155e-10,-8.42122556686112e-11,1.4059761477785363e-10
1687389615.371386,-7.894166701110108e-05,1.2725661326410066e-08,-9.450433445057144e-06,0.9999999968394513,-2.765636643031574e-05,7.916583150920088e-07,2.7014008720979825e-06,6.886889464965645e-10,-8.442859940059181e-11,1.4236700580452175e-10
1687389615.381386,-7.894166701222829e-05,1.2725688343608235e-08,-9.450438489999694e-06,0.9999999968394512,-2.765636520437853e-05,7.916772609763645e-07,2.7014324840928646e-06,6.913760285148735e-10,-8.505556475043773e-11,1.425469415055648e-10
1687389615.391386,-7.89416670133404e-05,1.2725715332655935e-08,-9.450443534990537e-06,0.9999999968394512,-2.765636395174351e-05,7.916962032776017e-07,2.7014640427374863e-06,6.894530625059846e-10,-8.288787616737643e-11,1.4163084691256966e-10
1687389615.401386,-7.894166701453909e-05,1.2725742358964122e-08,-9.450448580079243e-06,0.9999999968394512,-2.7656362743433165e-05,7.917150793182541e-07,2.7014956720651854e-06,6.898821629849044e-10,-8.501431491096493e-11,1.445013646496751e-10
1687389615.411386,-7.894166701560643e-05,1.2725769330490253e-08,-9.450453625223497e-06,0.9999999968394512,-2.7656361537584075e-05,7.917340635695207e-07,2.701527253550554e-06,6.908802818131237e-10,-8.677555885289545e-11,1.4189007626880811e-10
1687389615.421386,-7.89416670167804e-05,1.2725796351223739e-08,-9.45045867048363e-06,0.9999999968394511,-2.7656360256880663e-05,7.917529860403084e-07,2.7015588642580075e-06,6.907925755155579e-10,-8.053266554458251e-11,1.4455798474622777e-10
1687389615.431386,-7.894166701794094e-05,1.272582335402888e-08,-9.450463715772377e-06,0.999999996839451,-2.7656359047647866e-05,7.917718977579892e-07,2.7015904359487784e-06,6.895745223695046e-10,-8.714656735526064e-11,1.4271389238854495e-10
1687389615.441386,-7.894166701905895e-05,1.272585026680596e-08,-9.45046876121678e-06,0.999999996839451,-2.7656357804042844e-05,7.917908771797569e-07,2.701621995441248e-06,6.906034247285723e-10,-8.186296896527107e-11,1.4290099411428163e-10
1687389615.451386,-7.894166702011678e-05,1.2725877387696201e-08,-9.450473806819507e-06,0.999999996839451,-2.765635662757227e-05,7.918097733368859e-07,2.701653668833571e-06,6.898365570731901e-10,-8.775865111511436e-11,1.4044192322920116e-10
1687389615.461386,-7.894166702130125e-05,1.2725904416101605e-08,-9.450478852419293e-06,0.999999996839451,-2.765635538124259e-05,7.91828663031643e-07,2.701685245028177e-06,6.897696280287838e-10,-8.260821014009515e-11,1.4410024703894689e-10
1687389615.4713862,-7.894166702238499e-05,1.2725931437125754e-08,-9.45048389807012e-06,0.9999999968394507,-2.765635418114778e-05,7.918475958028404e-07,2.701716821454931e-06,6.898321196845039e-10,-8.186079474231933e-11,1.422823260014895e-10
1687389615.4813862,-7.8941667023574e-05,1.2725958371413087e-08,-9.450488943963114e-06,0.9999999968394507,-2.765635295072819e-05,7.918665355901753e-07,2.7017484307428437e-06,6.907194477247673e-10,-8.489908262415227e-11,1.439349343089247e-10
1687389615.4913862,-7.89416670247624e-05,1.2725985486566307e-08,-9.4504939897136e-06,0.9999999968394507,-2.7656351657903827e-05,7.918854426305309e-07,2.701780117539714e-06,6.908808548665759e-10,-8.4126917369912e-11,1.4357241188261133e-10
1687389615.5013862,-7.894166702596729e-05,1.2726012466257076e-08,-9.450499035684029e-06,0.9999999968394507,-2.7656350439541038e-05,7.919043872884458e-07,2.701811720366781e-06,6.907323679723821e-10,-8.629236972280695e-11,1.4493845313478817e-10
1687389615.5113862,-7.894166702705328e-05,1.2726039375501124e-08,-9.4505040819174e-06,0.9999999968394506,-2.765634924620777e-05,7.919233878671292e-07,2.701843219959665e-06,6.909561092075987e-10,-8.368670322697474e-11,1.4088145741496254e-10
1687389615.5213861,-7.894166702823815e-05,1.2726066484198801e-08,-9.450509128103906e-06,0.9999999968394505,-2.7656348006300515e-05,7.919422837686051e-07,2.7018749054469283e-06,6.901372911897324e-10,-8.617275181840442e-11,1.4386670938276257e-10
1687389615.5313861,-7.894166702929474e-05,1.2726093429912809e-08,-9.450514174497446e-06,0.9999999968394505,-2.765634679863069e-05,7.91961289999914e-07,2.7019064216361067e-06,6.906491651681964e-10,-8.32556863070128e-11,1.4168150212582844e-10
1687389615.5413861,-7.894166703041693e-05,1.2726120442144872e-08,-9.450519220822817e-06,0.9999999968394505,-2.7656345598238948e-05,7.919801703029162e-07,2.701938077080303e-06,6.892520802308213e-10,-8.679848369372394e-11,1.4121463128702445e-10
1687389615.551386,-7.894166703149804e-05,1.2726147545184488e-08,-9.450524267328561e-06,0.9999999968394505,-2.7656344375145548e-05,7.919991017775728e-07,2.7019697414807284e-06,6.905909894849027e-10,-8.368931554671755e-11,1.4005312736708836e-10
1687389615.561386,-7.894166703259303e-05,1.2726174488739283e-08,-9.45052931401553e-06,0.9999999968394503,-2.765634317472537e-05,7.920181013475296e-07,2.7020012166737244e-06,6.911915241323276e-10,-8.25436362729188e-11,1.4388445092395368e-10
1687389615.571386,-7.894166703368141e-05,1.272620156131702e-08,-9.450534360695718e-06,0.9999999968394503,-2.7656341962151918e-05,7.920370293173009e-07,2.7020329208062844e-06,6.902939549564127e-10,-8.431638512626364e-11,1.407371904150993e-10
1687389615.581386,-7.894166703481134e-05,1.2726228548311999e-08,-9.450539407466497e-06,0.9999999968394503,-2.7656340708081798e-05,7.920559251166924e-07,2.7020644722396496e-06,6.891083413911131e-10,-8.455509609054755e-11,1.4384558328660352e-10
1687389615.591386,-7.894166703595616e-05,1.2726255557322463e-08,-9.450544454336925e-06,0.9999999968394503,-2.765633950337089e-05,7.92074902031689e-07,2.702096084500229e-06,6.908081188352605e-10,-8.589307900125006e-11,1.425759450373919e-10
1687389615.601386,-7.894166703713373e-05,1.272628263427865e-08,-9.450549501274184e-06,0.9999999968394503,-2.765633827587498e-05,7.920938309680897e-07,2.702127728097821e-06,6.906183769169911e-10,-8.531382509667189e-11,1.445731559471951e-10
1687389615.611386,-7.894166703822174e-05,1.2726309674255863e-08,-9.450554548292541e-06,0.9999999968394501,-2.7656337055357008e-05,7.921127201476397e-07,2.7021593204471245e-06,6.89717156781119e-10,-8.497449938330302e-11,1.406309349483507e-10
1687389615.621386,-7.894166703939617e-05,1.2726336707073515e-08,-9.450559595432798e-06,0.9999999968394501,-2.765633579915604e-05,7.921316706596028e-07,2.702190971788331e-06,6.91169317182702e-10,-8.180543267076148e-11,1.43712397017543e-10
1687389615.631386,-7.894166704049383e-05,1.2726363683680762e-08,-9.450564642729351e-06,0.9999999968394501,-2.765633463562417e-05,7.921506158594804e-07,2.7022225300577053e-06,6.898798212813479e-10,-8.426866502027284e-11,1.4408042519502994e-10
1687389615.641386,-7.894166704160006e-05,1.2726390677644845e-08,-9.450569690184042e-06,0.9999999968394501,-2.765633338280273e-05,7.921696104311401e-07,2.70225408827278e-06,6.917541986565909e-10,-8.615468489947428e-11,1.408818345101582e-10
1687389615.651386,-7.894166704277483e-05,1.2726417631772088e-08,-9.450574737798895e-06,0.99999999683945,-2.765633216879031e-05,7.921885848588248e-07,2.7022856213778197e-06,6.903686957510366e-10,-8.264715829872791e-11,1.4485055852282025e-10
1687389615.661386,-7.894166704386204e-05,1.2726444733131868e-08,-9.450579785318376e-06,0.9999999968394498,-2.7656330943591393e-05,7.922074770611062e-07,2.702317321230881e-06,6.893267918228215e-10,-8.666454180382426e-11,1.4129744792786297e-10
1687389615.671386,-7.894166704495995e-05,1.272647171919166e-08,-9.450584832971716e-06,0.9999999968394498,-2.7656329713873355e-05,7.922264745428696e-07,2.7023489103643107e-06,6.914739665522002e-10,-8.168651657997567e-11,1.4171545195774525e-10
1687389615.681386,-7.894166704611996e-05,1.2726498760124178e-08,-9.450589880664e-06,0.9999999968394498,-2.7656328459816987e-05,7.922454064535109e-07,2.702380580827823e-06,6.910723409588992e-10,-8.574064776544158e-11,1.4373588330198603e-10
1687389615.691386,-7.89416670472544e-05,1.2726525796655887e-08,-9.450594928426677e-06,0.9999999968394498,-2.7656327263443813e-05,7.922642912625407e-07,2.70241214213979e-06,6.893258638836188e-10,-8.583488030291613e-11,1.4387265423879007e-10
1687389615.701386,-7.894166704845392e-05,1.2726552779151588e-08,-9.450599976337085e-06,0.9999999968394496,-2.765632597990817e-05,7.922832384861145e-07,2.7024437255076585e-06,6.904190883104645e-10,-8.118506692566343e-11,1.452645574604773e-10
1687389615.711386,-7.894166704960433e-05,1.2726579815462948e-08,-9.450605024270358e-06,0.9999999968394496,-2.7656324724856306e-05,7.923022406499187e-07,2.7024753985672134e-06,6.927036322034723e-10,-8.38527328918157e-11,1.4192939667233882e-10
1687389615.7213862,-7.894166705079324e-05,1.2726606879989377e-08,-9.450610072233936e-06,0.9999999968394496,-2.7656323507295924e-05,7.923211075176769e-07,2.702507033707074e-06,6.890956964355286e-10,-8.531283465953948e-11,1.4363441359870318e-10
1687389615.7313862,-7.894166705188063e-05,1.2726633827717753e-08,-9.450615120303473e-06,0.9999999968394496,-2.765632235306159e-05,7.923400349922484e-07,2.7025385963752917e-06,6.889577832607727e-10,-8.620399875002662e-11,1.4179470520563757e-10
1687389615.7413862,-7.894166705297224e-05,1.2726660871818395e-08,-9.450620168479629e-06,0.9999999968394496,-2.765632113997748e-05,7.923590070474515e-07,2.7025701999617244e-06,6.913273442151815e-10,-8.421009508983534e-11,1.4231836577232614e-10
1687389615.7513862,-7.89416670540662e-05,1.2726687897309623e-08,-9.450625216726216e-06,0.9999999968394494,-2.7656319870501178e-05,7.923779565517892e-07,2.7026018014757113e-06,6.908853481648464e-10,-8.406176521205257e-11,1.4082452181724961e-10
1687389615.7613862,-7.89416670552386e-05,1.2726714887248709e-08,-9.450630265156403e-06,0.9999999968394494,-2.7656318659787177e-05,7.923968956624724e-07,2.702633437743545e-06,6.904698037696655e-10,-8.387578188319958e-11,1.4508477093386146e-10
1687389615.7713861,-7.894166705637996e-05,1.2726741931824076e-08,-9.450635313630128e-06,0.9999999968394494,-2.765631742266828e-05,7.924157800235424e-07,2.70266507680838e-06,6.892194181089949e-10,-8.720210231138002e-11,1.4129568576212066e-10
1687389615.7813861,-7.89416670574609e-05,1.2726768878564911e-08,-9.450640362351464e-06,0.9999999968394494,-2.7656316227570514e-05,7.924348211133503e-07,2.7026965600290268e-06,6.916778476652714e-10,-8.106789920733573e-11,1.4313027794573987e-10
1687389615.7913861,-7.894166705859383e-05,1.2726795894700108e-08,-9.450645411179829e-06,0.9999999968394493,-2.7656314992544097e-05,7.924537942376036e-07,2.702728099388975e-06,6.914575325201111e-10,-8.545458879350593e-11,1.4224607994907942e-10
1687389615.801386,-7.894166705972851e-05,1.2726822983457829e-08,-9.450650460015414e-06,0.9999999968394492,-2.765631373682649e-05,7.92472682041604e-07,2.7027598747819665e-06,6.896408823005811e-10,-8.430037561387332e-11,1.4287947130443337e-10
1687389615.811386,-7.894166706088692e-05,1.272685006308641e-08,-9.450655508878729e-06,0.9999999968394492,-2.7656312542811595e-05,7.924915916733233e-07,2.702791455002224e-06,6.901871102261316e-10,-8.406882887774307e-11,1.445014513469113e-10
1687389615.821386,-7.894166706200493e-05,1.2726877043236943e-08,-9.45066055788038e-06,0.9999999968394492,-2.7656311326691394e-05,7.925105097144266e-07,2.7028230306261095e-06,6.894879366740123e-10,-8.219883854166875e-11,1.4222940390696945e-10
1687389615.831386,-7.894166706315676e-05,1.2726904087044222e-08,-9.450665606933232e-06,0.9999999968394492,-2.7656310091334528e-05,7.925294985527588e-07,2.702854650513735e-06,6.917922548355346e-10,-8.926560702336604e-11,1.4248519764676818e-10
1687389615.841386,-7.894166706431168e-05,1.2726931104130091e-08,-9.4506706560314e-06,0.999999996839449,-2.765630887617021e-05,7.925483982035557e-07,2.7028863241454634e-06,6.901453803424198e-10,-8.208937231310996e-11,1.4382384856114666e-10
1687389615.851386,-7.894166706540831e-05,1.2726958159692662e-08,-9.45067570509173e-06,0.999999996839449,-2.7656307658986917e-05,7.925673016422397e-07,2.702917935455461e-06,6.89429630522546e-10,-8.767119888443918e-11,1.4094203021576875e-10
1687389615.861386,-7.89416670665444e-05,1.2726985280356238e-08,-9.45068075422888e-06,0.999999996839449,-2.765630641166673e-05,7.925861900632772e-07,2.702949620582198e-06,6.906221972053924e-10,-8.443062829725736e-11,1.4168589534999275e-10
1687389615.871386,-7.894166706766707e-05,1.2727012139687793e-08,-9.450685803626139e-06,0.999999996839449,-2.7656305203490665e-05,7.926051641592653e-07,2.7029810725228685e-06,6.893509180166709e-10,-8.150413409471789e-11,1.43096494871247e-10
1687389615.881386,-7.894166706880609e-05,1.2727039166738655e-08,-9.450690853093673e-06,0.9999999968394488,-2.7656303999603926e-05,7.92624081820529e-07,2.7030126983391765e-06,6.903826305920283e-10,-8.397838354605816e-11,1.4429983711897218e-10
1687389615.891386,-7.89416670699484e-05,1.272706616571629e-08,-9.450695902699858e-06,0.9999999968394487,-2.765630272980678e-05,7.926431242496973e-07,2.7030442758094005e-06,6.928990531562629e-10,-8.371274381930729e-11,1.4310771396050176e-10
1687389615.901386,-7.894166707112042e-05,1.272709317272875e-08,-9.450700952370863e-06,0.9999999968394487,-2.765630154748833e-05,7.926620027726193e-07,2.7030758494354672e-06,6.888170098873342e-10,-8.583203130177828e-11,1.4364799457287573e-10
1687389615.911386,-7.894166707224105e-05,1.2727120186391822e-08,-9.450706002255253e-06,0.9999999968394487,-2.7656300302136566e-05,7.926810033048939e-07,2.703107498048882e-06,6.916587744246786e-10,-8.463316960720515e-11,1.4181895568926702e-10
1687389615.921386,-7.894166707333616e-05,1.2727147232785435e-08,-9.450711052204202e-06,0.9999999968394487,-2.765629907632633e-05,7.926999194665056e-07,2.70313910040754e-06,6.896265650099676e-10,-8.326581682532966e-11,1.412034707066243e-10
1687389615.931386,-7.894166707444496e-05,1.2727174298229317e-08,-9.450716102123604e-06,0.9999999968394486,-2.7656297868313918e-05,7.927188738955433e-07,2.703170762744514e-06,6.912754285180564e-10,-8.601826590503011e-11,1.434144843874032e-10
1687389615.941386,-7.894166707561443e-05,1.2727201373912393e-08,-9.450721151989088e-06,0.9999999968394485,-2.7656296615419195e-05,7.927377462654816e-07,2.703202431385741e-06,6.893906705929233e-10,-8.316382876537596e-11,1.4313377174007923e-10
1687389615.951386,-7.894166707677795e-05,1.2727228408062831e-08,-9.450726201937468e-06,0.9999999968394485,-2.7656295363275996e-05,7.927566581777602e-07,2.7032340323614938e-06,6.90757825482988e-10,-8.539214358240124e-11,1.4427085868712094e-10
1687389615.961386,-7.894166707796227e-05,1.2727255359192714e-08,-9.450731252133352e-06,0.9999999968394485,-2.765629413467187e-05,7.927755859784218e-07,2.703265593381906e-06,6.898459673248995e-10,-8.436871003319566e-11,1.4295064335883578e-10
1687389615.9713862,-7.894166707913118e-05,1.2727282378812056e-08,-9.450736302353258e-06,0.9999999968394485,-2.765629290043642e-05,7.92794491903188e-07,2.703297215541614e-06,6.899838028104026e-10,-8.289539249373874e-11,1.444989818071539e-10
1687389615.9813862,-7.894166708024994e-05,1.2727309384867442e-08,-9.45074135263022e-06,0.9999999968394483,-2.765629165390206e-05,7.928134761435045e-07,2.7033287411420766e-06,6.909984232216771e-10,-8.630409148479437e-11,1.417008168461021e-10
1687389615.9913862,-7.894166708140394e-05,1.2727336499516386e-08,-9.450746403003443e-06,0.9999999968394483,-2.765629045856152e-05,7.92832343395213e-07,2.703360467736607e-06,6.896717781321322e-10,-8.567790901691849e-11,1.4352794818724275e-10
1687389616.0013862,-7.894166708254444e-05,1.2727363403599048e-08,-9.450751453558686e-06,0.9999999968394483,-2.7656289245289403e-05,7.928513101827192e-07,2.7033919979530793e-06,6.904064940859475e-10,-8.264327312693315e-11,1.428834148340046e-10
1687389616.0113862,-7.894166708362647e-05,1.2727390463821071e-08,-9.450756504136975e-06,0.9999999968394483,-2.7656288011253346e-05,7.92870206607544e-07,2.703423624458298e-06,6.897955593574225e-10,-8.55646183804851e-11,1.418270130706221e-10
1687389616.0213861,-7.894166708474895e-05,1.272741751936937e-08,-9.450761554745061e-06,0.9999999968394482,-2.765628679254739e-05,7.92889124141354e-07,2.703455270258205e-06,6.901986949142067e-10,-8.020361763150666e-11,1.428897366349484e-10
1687389616.0313861,-7.894166708587818e-05,1.2727444627945743e-08,-9.45076660542453e-06,0.9999999968394481,-2.765628557456309e-05,7.929080460205451e-07,2.7034869313008006e-06,6.909873490505012e-10,-9.029037770958192e-11,1.4118330937781983e-10
1687389616.0413861,-7.894166708694786e-05,1.2727471528672876e-08,-9.450771656407684e-06,0.9999999968394481,-2.7656284366549785e-05,7.929270321615075e-07,2.703518433169124e-06,6.902676755802703e-10,-8.54971879185464e-11,1.4023361449457123e-10
1687389616.051386,-7.894166708811047e-05,1.2727498506229005e-08,-9.45077670749363e-06,0.9999999968394481,-2.765628317844087e-05,7.929460388011764e-07,2.7035500318907245e-06,6.918093847459339e-10,-8.184425219295496e-11,1.440280450466684e-10
1687389616.061386,-7.89416670892155e-05,1.2727525549108782e-08,-9.45078175861388e-06,0.9999999968394481,-2.7656281954044213e-05,7.929649358949091e-07,2.703581637394246e-06,6.890112861911853e-10,-8.518499370228182e-11,1.4200002435020929e-10
1687389616.071386,-7.894166709038069e-05,1.2727552600872799e-08,-9.450786809842972e-06,0.999999996839448,-2.7656280695672862e-05,7.929838751933433e-07,2.703613288683059e-06,6.911983556901975e-10,-8.245650629024034e-11,1.4336780194894427e-10
1687389616.081386,-7.894166709153172e-05,1.2727579541506657e-08,-9.450791861280304e-06,0.9999999968394478,-2.765627946784947e-05,7.930028634063569e-07,2.7036448080962528e-06,6.91406166755585e-10,-8.181384924135781e-11,1.4559726706736688e-10
1687389616.091386,-7.894166709265683e-05,1.272760656647532e-08,-9.450796912894333e-06,0.9999999968394478,-2.765627824796553e-05,7.930218049105224e-07,2.703676407470501e-06,6.898155702544428e-10,-8.833791870171478e-11,1.4151709635797942e-10
1687389616.101386,-7.894166709379291e-05,1.2727633637590912e-08,-9.450801964531102e-06,0.9999999968394478,-2.7656276990966457e-05,7.930407033643209e-07,2.7037081127101044e-06,6.898817814160669e-10,-8.192560349756546e-11,1.4336686740370289e-10
1687389616.111386,-7.894166709494321e-05,1.272766062182727e-08,-9.450807016197625e-06,0.9999999968394478,-2.7656275793759762e-05,7.930597071050096e-07,2.703739709909505e-06,6.921735788587595e-10,-8.560610696591882e-11,1.429594013160736e-10
1687389616.121386,-7.894166709602854e-05,1.2727687680981857e-08,-9.450812067832083e-06,0.9999999968394476,-2.765627455894147e-05,7.930786410313177e-07,2.7037713162514036e-06,6.901203722583643e-10,-8.614635846092957e-11,1.4118366682532714e-10
1687389616.131386,-7.89416670971291e-05,1.2727714736867668e-08,-9.450817119607128e-06,0.9999999968394476,-2.7656273380891242e-05,7.930975463773799e-07,2.7038029756892834e-06,6.896800878036078e-10,-8.570447017574858e-11,1.412447384504517e-10
1687389616.141386,-7.894166709828872e-05,1.272774171974568e-08,-9.450822171459163e-06,0.9999999968394476,-2.7656272124720683e-05,7.931165173165503e-07,2.7038345396416625e-06,6.911097087861437e-10,-8.091585366073323e-11,1.4459981175150878e-10
1687389616.151386,-7.894166709941343e-05,1.272776874278095e-08,-9.450827223448786e-06,0.9999999968394476,-2.7656270915140864e-05,7.931354848867647e-07,2.703866152080453e-06,6.911912914508828e-10,-8.630675328362332e-11,1.414387215463473e-10
1687389616.161386,-7.894166710057587e-05,1.2727795820852685e-08,-9.450832275456619e-06,0.9999999968394475,-2.765626970355056e-05,7.931543442985243e-07,2.703897789514233e-06,6.887716186551686e-10,-8.595259300419482e-11,1.439241107767698e-10
1687389616.171386,-7.894166710171197e-05,1.2727822839002838e-08,-9.450837327505391e-06,0.9999999968394474,-2.7656268410879905e-05,7.93173279067276e-07,2.7039294322382205e-06,6.903995648588169e-10,-7.892239879871915e-11,1.4278461135694397e-10
1687389616.181386,-7.894166710289955e-05,1.2727849874331646e-08,-9.45084237968145e-06,0.9999999968394474,-2.7656267214600074e-05,7.93192278131469e-07,2.703961016219637e-06,6.922209175495755e-10,-8.62338353622831e-11,1.4566889830708765e-10
1687389616.191386,-7.894166710400088e-05,1.2727876793351382e-08,-9.450847432040694e-06,0.9999999968394474,-2.76562659917465e-05,7.932112285951038e-07,2.7039925774361736e-06,6.899475805195329e-10,-8.573734102403218e-11,1.412145386068075e-10
1687389616.201386,-7.89416671051743e-05,1.2727903887300853e-08,-9.450852484425024e-06,0.9999999968394474,-2.7656264736011888e-05,7.93230152550975e-07,2.7040242578126884e-06,6.907923774912257e-10,-8.279503736430045e-11,1.4362372712370507e-10
1687389616.211386,-7.894166710631134e-05,1.2727930951200565e-08,-9.450857536839884e-06,0.9999999968394473,-2.7656263500057217e-05,7.932490626911853e-07,2.704055920982752e-06,6.903457315769504e-10,-8.645932188877982e-11,1.4173361104337617e-10
1687389616.2213862,-7.894166710744734e-05,1.2727957949475593e-08,-9.450862589301102e-06,0.9999999968394472,-2.765626228959998e-05,7.932679986330477e-07,2.704087526343182e-06,6.90601125291635e-10,-8.480048953833427e-11,1.439914720842913e-10
1687389616.2313862,-7.894166710852893e-05,1.2727984945833441e-08,-9.450867641994176e-06,0.9999999968394472,-2.7656261091528332e-05,7.932869933308345e-07,2.704119096534352e-06,6.910431720189625e-10,-8.570461133069512e-11,1.41809415836866e-10
1687389616.2413862,-7.894166710966169e-05,1.2728011956491672e-08,-9.450872694827186e-06,0.9999999968394472,-2.7656259849439757e-05,7.933059333677158e-07,2.70415073598808e-06,6.908804309436457e-10,-8.252676775694918e-11,1.4311107820750557e-10
1687389616.2513862,-7.894166711077663e-05,1.272803898565386e-08,-9.450877747619984e-06,0.9999999968394472,-2.7656258654845925e-05,7.933248707669268e-07,2.7041823454948283e-06,6.900686057406849e-10,-8.529288747852379e-11,1.4295961687204188e-10
1687389616.2613862,-7.894166711189395e-05,1.2728066010394679e-08,-9.450882800611553e-06,0.999999996839447,-2.7656257432037016e-05,7.933438306935319e-07,2.704213973797414e-06,6.90642396973495e-10,-8.988842410769936e-11,1.4202635491730388e-10
1687389616.2713861,-7.894166711307287e-05,1.2728093077273004e-08,-9.450887853686958e-06,0.999999996839447,-2.7656256165038066e-05,7.933627371984701e-07,2.7042456163944804e-06,6.905881181121748e-10,-7.770386647156143e-11,1.4308036279422799e-10
1687389616.2813861,-7.89416671142291e-05,1.2728120043961005e-08,-9.450892906813285e-06,0.999999996839447,-2.765625496992549e-05,7.933816688440558e-07,2.704277201656829e-06,6.900081156653107e-10,-8.63747957311892e-11,1.4543431671746345e-10
1687389616.2913861,-7.8941667115389e-05,1.2728147064381881e-08,-9.450897960054003e-06,0.999999996839447,-2.7656253726646658e-05,7.934006570845423e-07,2.7043087904378093e-06,6.920467761849561e-10,-8.676455015691965e-11,1.428060278149484e-10
1687389616.301386,-7.89416671164947e-05,1.2728174089399296e-08,-9.450903013471066e-06,0.9999999968394468,-2.7656252480166972e-05,7.934195880189212e-07,2.7043403707996565e-06,6.891280237349956e-10,-8.422051822771685e-11,1.4085542500524632e-10
1687389616.311386,-7.894166711763479e-05,1.2728201011953668e-08,-9.45090806699601e-06,0.9999999968394467,-2.7656251266904755e-05,7.934385684842867e-07,2.7043719169100154e-06,6.908836975740282e-10,-8.088173039287954e-11,1.4501044472868485e-10
1687389616.321386,-7.89416671188156e-05,1.2728228152391891e-08,-9.450913120572924e-06,0.9999999968394467,-2.765624999055752e-05,7.934575363500091e-07,2.704403628683164e-06,6.923088780730243e-10,-8.648365805859685e-11,1.4376274038923196e-10
1687389616.331386,-7.894166711989226e-05,1.2728255170011763e-08,-9.450918174209619e-06,0.9999999968394467,-2.7656248807913235e-05,7.934764014587623e-07,2.7044351876835087e-06,6.884820685036454e-10,-8.456675118963253e-11,1.4073246830911827e-10
1687389616.341386,-7.894166712107556e-05,1.2728282184143825e-08,-9.450923227944668e-06,0.9999999968394467,-2.7656247604984585e-05,7.934954214492427e-07,2.7044668293778804e-06,6.928722718377264e-10,-8.4946038681723e-11,1.454297210506878e-10
1687389616.351386,-7.894166712221237e-05,1.2728309255510143e-08,-9.450928281761838e-06,0.9999999968394466,-2.7656246356278074e-05,7.935143250790789e-07,2.7044984751368888e-06,6.895291325299939e-10,-8.495323907110506e-11,1.4220585775011281e-10
1687389616.361386,-7.894166712329068e-05,1.2728336317311057e-08,-9.45093333559218e-06,0.9999999968394465,-2.765624513266018e-05,7.935333114077659e-07,2.704530071848918e-06,6.914794187819863e-10,-8.507021150206646e-11,1.4284138466496981e-10
1687389616.371386,-7.894166712447227e-05,1.2728363206152081e-08,-9.45093838958749e-06,0.9999999968394465,-2.7656243900540183e-05,7.935522524022924e-07,2.704561621933712e-06,6.901820822152082e-10,-8.295732335344305e-11,1.453836629536662e-10
1687389616.381386,-7.894166712559949e-05,1.2728390264052878e-08,-9.45094344369079e-06,0.9999999968394465,-2.7656242660724882e-05,7.935712096209299e-07,2.7045932444034333e-06,6.905817180631041e-10,-8.46664619425831e-11,1.4092355497923108e-10
1687389616.391386,-7.89416671267141e-05,1.272841727718308e-08,-9.450948498023263e-06,0.9999999968394465,-2.765624143603451e-05,7.935901831411815e-07,2.70462486923044e-06,6.915939975330546e-10,-8.633362587784074e-11,1.4319640861156428e-10
1687389616.401386,-7.894166712787919e-05,1.2728444331957677e-08,-9.450953552335317e-06,0.9999999968394463,-2.7656240218401707e-05,7.936091223091053e-07,2.7046565208356424e-06,6.907266286103353e-10,-8.347050878817149e-11,1.441806313933392e-10
1687389616.411386,-7.894166712896233e-05,1.2728471392691151e-08,-9.45095860655563e-06,0.9999999968394463,-2.765623900420545e-05,7.936280345705355e-07,2.704688113989024e-06,6.893839535145537e-10,-8.603175624444886e-11,1.4024491210822523e-10
1687389616.421386,-7.894166713009848e-05,1.2728498424639874e-08,-9.450963660880246e-06,0.9999999968394463,-2.7656237748009597e-05,7.93646931992172e-07,2.70471976063201e-06,6.90040915482321e-10,-8.246369331690214e-11,1.4279652529267024e-10
1687389616.431386,-7.894166713122802e-05,1.272852544066533e-08,-9.450968715210183e-06,0.9999999968394462,-2.76562365321772e-05,7.936658558186127e-07,2.704751349597226e-06,6.90127514808882e-10,-8.292496042067264e-11,1.4398576920079646e-10
1687389616.441386,-7.894166713239405e-05,1.2728552517966026e-08,-9.450973769655868e-06,0.9999999968394461,-2.7656235343079403e-05,7.936847769642031e-07,2.704783041289417e-06,6.910687234792017e-10,-8.735328205084809e-11,1.4366852672006364e-10
1687389616.451386,-7.894166713354023e-05,1.2728579546902247e-08,-9.450978824177326e-06,0.9999999968394461,-2.7656234061103636e-05,7.937036897904613e-07,2.704814708918877e-06,6.9040366464973e-10,-8.567953983459601e-11,1.4256752502686558e-10
1687389616.461386,-7.894166713468467e-05,1.272860663833269e-08,-9.45098387885171e-06,0.9999999968394461,-2.765623284309602e-05,7.937225914971385e-07,2.704846342186123e-06,6.89910835095552e-10,-8.363370317193784e-11,1.427488663809011e-10
1687389616.4713862,-7.894166713580427e-05,1.2728633577900136e-08,-9.45098893348424e-06,0.9999999968394461,-2.7656231626413946e-05,7.937415886500559e-07,2.704877860284455e-06,6.908762138361697e-10,-8.407010563707739e-11,1.4246272248016506e-10
1687389616.4813862,-7.894166713699411e-05,1.2728660602185503e-08,-9.450993988269873e-06,0.9999999968394458,-2.7656230371666426e-05,7.937604945263174e-07,2.7049095309724487e-06,6.911470146620094e-10,-8.486983652471506e-11,1.4361660367918738e-10
1687389616.4913862,-7.894166713810506e-05,1.2728687589892989e-08,-9.450999043279171e-06,0.9999999968394458,-2.7656229160668693e-05,7.937794638577614e-07,2.7049410671016377e-06,6.902314424206316e-10,-8.425616449625562e-11,1.4327873260273869e-10
1687389616.5013862,-7.894166713924976e-05,1.2728714592825644e-08,-9.451004098423825e-06,0.9999999968394458,-2.7656227982568863e-05,7.937984286047005e-07,2.7049726368301653e-06,6.910902210930201e-10,-8.517112946319476e-11,1.441071463516016e-10
1687389616.5113862,-7.894166714040865e-05,1.2728741672470276e-08,-9.451009153611008e-06,0.9999999968394458,-2.765622672353733e-05,7.938173700913855e-07,2.7050042931004307e-06,6.906974609387157e-10,-8.411843196096707e-11,1.427995954608874e-10
1687389616.5213861,-7.894166714152653e-05,1.272876862176934e-08,-9.451014209050831e-06,0.9999999968394457,-2.76562255196547e-05,7.938363685730904e-07,2.7050359039967306e-06,6.915399204906082e-10,-8.483073775031293e-11,1.4221681725675197e-10
1687389616.5313861,-7.894166714260521e-05,1.2728795721820454e-08,-9.451019264387279e-06,0.9999999968394456,-2.7656224308251478e-05,7.938552828211931e-07,2.7050675069399374e-06,6.894514175582463e-10,-8.471902481638151e-11,1.4033348101659465e-10
1687389616.5413861,-7.894166714377187e-05,1.2728822723979712e-08,-9.451024319832359e-06,0.9999999968394456,-2.7656223039173242e-05,7.938742299904446e-07,2.705099128103505e-06,6.911772826996413e-10,-8.146452040775852e-11,1.4384701465352122e-10
1687389616.551386,-7.894166714490074e-05,1.2728849756995452e-08,-9.451029375316956e-06,0.9999999968394456,-2.7656221850648604e-05,7.938931823482384e-07,2.705130758248015e-06,6.908954791786428e-10,-8.546538393373468e-11,1.4407998679356005e-10
1687389616.561386,-7.894166714599917e-05,1.2728876787161604e-08,-9.45103443095466e-06,0.9999999968394456,-2.765622063254801e-05,7.939121066445914e-07,2.7051623581129218e-06,6.891977437623243e-10,-8.332858376411954e-11,1.4092146896443253e-10
1687389616.571386,-7.894166714715457e-05,1.2728903810291439e-08,-9.451039486694635e-06,0.9999999968394455,-2.7656219358915405e-05,7.93931076310099e-07,2.7051939594289686e-06,6.917996702349444e-10,-8.514123590584599e-11,1.4241382667632073e-10
1687389616.581386,-7.89416671483066e-05,1.272893083019727e-08,-9.451044542569743e-06,0.9999999968394454,-2.7656218134283505e-05,7.939499983393265e-07,2.705225619064874e-06,6.901305942091193e-10,-8.521334141282203e-11,1.4384843783608797e-10
1687389616.591386,-7.894166714945795e-05,1.2728957883235899e-08,-9.451049598463476e-06,0.9999999968394454,-2.7656216925900658e-05,7.939688896502913e-07,2.7052572681158027e-06,6.896811649108567e-10,-8.3741960365903e-11,1.439208209995639e-10
1687389616.601386,-7.894166715058337e-05,1.2728984959087671e-08,-9.451054654454678e-06,0.9999999968394454,-2.7656215698255468e-05,7.939878999205224e-07,2.705288840390608e-06,6.919238818126925e-10,-8.368188278333654e-11,1.4186361539412188e-10
1687389616.611386,-7.894166715169237e-05,1.2729011913018473e-08,-9.45105971060025e-06,0.9999999968394454,-2.7656214500226996e-05,7.940068375477634e-07,2.7053204431190457e-06,6.898091646858063e-10,-8.794122119768005e-11,1.429700714989565e-10
1687389616.621386,-7.894166715283866e-05,1.2729038993505582e-08,-9.451064766781481e-06,0.9999999968394452,-2.7656213256768267e-05,7.940257648017307e-07,2.7053520572002373e-06,6.907592885636468e-10,-8.308833036331857e-11,1.42779046264295e-10
1687389616.631386,-7.894166715398467e-05,1.2729066051481745e-08,-9.45106982290644e-06,0.9999999968394452,-2.7656211968720192e-05,7.94044702179137e-07,2.7053837515047596e-06,6.907389619362788e-10,-8.132206193531027e-11,1.4415479869854224e-10
1687389616.641386,-7.894166715518823e-05,1.2729093094131545e-08,-9.45107487906263e-06,0.9999999968394452,-2.7656210767451863e-05,7.940635946190912e-07,2.70541533587058e-06,6.904307247703369e-10,-8.957450200262587e-11,1.4574098804625556e-10
1687389616.651386,-7.894166715633181e-05,1.2729120146080503e-08,-9.451079935365849e-06,0.9999999968394452,-2.7656209515309877e-05,7.940824893385847e-07,2.705447028536297e-06,6.907408936814034e-10,-8.470613676965005e-11,1.4142360290929621e-10
1687389616.661386,-7.894166715743858e-05,1.2729147115043719e-08,-9.451084991902237e-06,0.9999999968394451,-2.7656208290924335e-05,7.941015274748288e-07,2.7054785567750435e-06,6.911829190891374e-10,-8.461740138353878e-11,1.4187063255394952e-10
1687389616.671386,-7.894166715853534e-05,1.2729174190949152e-08,-9.451090048331542e-06,0.999999996839445,-2.7656207121632536e-05,7.941203983075372e-07,2.7055102108379974e-06,6.893501347230171e-10,-8.583436684057472e-11,1.4164694275028717e-10
1687389616.681386,-7.894166715972462e-05,1.2729201183545625e-08,-9.451095105032609e-06,0.999999996839445,-2.765620589744053e-05,7.94139356268551e-07,2.7055417623710807e-06,6.907185773170175e-10,-7.943785434675948e-11,1.4580102164496592e-10
1687389616.691386,-7.894166716083775e-05,1.2729228265609775e-08,-9.451100161843581e-06,0.999999996839445,-2.7656204616649156e-05,7.941582981722321e-07,2.7055734295358636e-06,6.908727276427772e-10,-8.546474758610967e-11,1.415331171535064e-10
1687389616.701386,-7.894166716202512e-05,1.2729255202144867e-08,-9.451105218721805e-06,0.999999996839445,-2.76562034008801e-05,7.941772391804787e-07,2.705605018454591e-06,6.902470224353622e-10,-8.469554035872245e-11,1.454272028133202e-10
1687389616.711386,-7.894166716319336e-05,1.2729282277064924e-08,-9.451110275579651e-06,0.9999999968394448,-2.7656202184093395e-05,7.941961977920452e-07,2.7056366705415067e-06,6.916832122592826e-10,-8.806359195402435e-11,1.430720882748702e-10
1687389616.7213862,-7.894166716431381e-05,1.272930935669126e-08,-9.451115332511636e-06,0.9999999968394447,-2.7656200941994077e-05,7.942151195138322e-07,2.7056682935662642e-06,6.907445896520562e-10,-8.245521894812034e-11,1.4170378975493716e-10
1687389616.7313862,-7.894166716539524e-05,1.272933635493123e-08,-9.451120389527806e-06,0.9999999968394447,-2.76561997554107e-05,7.942340042571747e-07,2.705699955176967e-06,6.892456190170102e-10,-8.619184377439831e-11,1.42239497560672e-10
1687389616.7413862,-7.894166716658777e-05,1.272936334359575e-08,-9.451125446460887e-06,0.9999999968394447,-2.7656198506434107e-05,7.942528986986933e-07,2.705731505256561e-06,6.888802328753787e-10,-8.101014559736873e-11,1.4400684416427545e-10
1687389616.7513862,-7.894166716775132e-05,1.272939044964572e-08,-9.451130503545866e-06,0.9999999968394447,-2.7656197225880156e-05,7.94271850394504e-07,2.7057631907298587e-06,6.923046304317718e-10,-8.676863400599366e-11,1.428370174907096e-10
1687389616.7613862,-7.89416671688643e-05,1.272941745436445e-08,-9.451135560772968e-06,0.9999999968394445,-2.7656196034256435e-05,7.942907385022028e-07,2.7057947624104263e-06,6.889278960222966e-10,-8.637005279836457e-11,1.413674636011683e-10
1687389616.7713861,-7.894166717000855e-05,1.2729444440462127e-08,-9.45114061817856e-06,0.9999999968394445,-2.7656194809022616e-05,7.9430966425612e-07,2.7058263591468963e-06,6.90429281758934e-10,-8.011137207621845e-11,1.4321641640565632e-10
1687389616.7813861,-7.894166717116084e-05,1.2729471358135091e-08,-9.45114567576424e-06,0.9999999968394445,-2.7656193574730952e-05,7.943286751809081e-07,2.7058579115698843e-06,6.915900812866794e-10,-8.729483490651171e-11,1.4328183930846486e-10
1687389616.7913861,-7.894166717232567e-05,1.2729498535799438e-08,-9.451150733423835e-06,0.9999999968394445,-2.7656192335469157e-05,7.943475897554982e-07,2.7058896602655876e-06,6.916693004773893e-10,-8.344903476962754e-11,1.42993931414048e-10
1687389616.801386,-7.894166717340679e-05,1.2729525370043535e-08,-9.451155791307462e-06,0.9999999968394444,-2.765619114420381e-05,7.943666274115577e-07,2.7059211155606285e-06,6.902992362299863e-10,-8.460480756326318e-11,1.4378888376676927e-10
1687389616.811386,-7.894166717460173e-05,1.2729552546870684e-08,-9.451160849065285e-06,0.9999999968394443,-2.7656189893821493e-05,7.943854690464604e-07,2.705952871475251e-06,6.900374644279583e-10,-8.606998523991821e-11,1.4385380216088038e-10
1687389616.821386,-7.894166717578038e-05,1.2729579521072155e-08,-9.451165906987646e-06,0.9999999968394443,-2.7656188665671696e-05,7.944044602611384e-07,2.7059844368796296e-06,6.917323954001015e-10,-8.429544818341503e-11,1.439814085059623e-10
1687389616.831386,-7.894166717686667e-05,1.2729606619046417e-08,-9.451170964930946e-06,0.9999999968394443,-2.7656187451043458e-05,7.944233747677676e-07,2.7060161130540275e-06,6.897838105676766e-10,-8.357576814039046e-11,1.410207256875481e-10
1687389616.841386,-7.894166717794984e-05,1.2729633581992976e-08,-9.451176023146605e-06,0.9999999968394443,-2.7656186221801618e-05,7.944423392640888e-07,2.706047674557525e-06,6.906168088461231e-10,-8.4495778452555e-11,1.4168353953070432e-10
1687389616.851386,-7.894166717913582e-05,1.2729660612604914e-08,-9.45118108142899e-06,0.9999999968394442,-2.7656184998081613e-05,7.94461280058537e-07,2.7060792689222185e-06,6.90873763873078e-10,-8.665673027199032e-11,1.4438405134849465e-10
1687389616.861386,-7.894166718024238e-05,1.2729687612464217e-08,-9.451186139820191e-06,0.9999999968394441,-2.7656183799940746e-05,7.944802442266024e-07,2.70611090310858e-06,6.909176381390326e-10,-8.33284081683825e-11,1.4145010148057034e-10
1687389616.871386,-7.894166718145115e-05,1.2729714752464952e-08,-9.451191198070717e-06,0.9999999968394441,-2.7656182563457706e-05,7.944991510749717e-07,2.7061425851077566e-06,6.909787332298518e-10,-8.472877934297235e-11,1.4514395124109597e-10
1687389616.881386,-7.894166718254759e-05,1.2729741764002694e-08,-9.45119625651279e-06,0.9999999968394441,-2.7656181315535876e-05,7.945181116421677e-07,2.7061741913918287e-06,6.901271564966134e-10,-8.439880960401932e-11,1.4095023153937493e-10
1687389616.891386,-7.894166718373876e-05,1.2729768749913484e-08,-9.451201315130308e-06,0.9999999968394441,-2.765618007304729e-05,7.945370340280038e-07,2.7062058356008307e-06,6.904616426084747e-10,-8.266946909293673e-11,1.4483209909146072e-10
1687389616.901386,-7.894166718495813e-05,1.2729795765159156e-08,-9.451206373782626e-06,0.9999999968394438,-2.7656178812942586e-05,7.945560260755333e-07,2.7062374688492018e-06,6.921844907860906e-10,-8.528375888871993e-11,1.4356097184062226e-10
1687389616.911386,-7.894166718609205e-05,1.2729822740703608e-08,-9.451211432655854e-06,0.9999999968394438,-2.7656177598123312e-05,7.945750168918959e-07,2.7062690075721946e-06,6.911127421066415e-10,-8.165422423502758e-11,1.4332510933388708e-10
1687389616.921386,-7.89416671872316e-05,1.2729849743848191e-08,-9.451216491656424e-06,0.9999999968394438,-2.7656176376154324e-05,7.945940039851129e-07,2.7063006481082238e-06,6.910103365975716e-10,-8.66939238086235e-11,1.4266367076844207e-10
1687389616.931386,-7.894166718836514e-05,1.272987691795933e-08,-9.451221550630233e-06,0.9999999968394438,-2.765617516254534e-05,7.946128789742248e-07,2.706332372659997e-06,6.895105404467982e-10,-8.718089942096851e-11,1.4267557312128462e-10
1687389616.941386,-7.894166718943318e-05,1.2729903844569052e-08,-9.45122660978636e-06,0.9999999968394437,-2.765617395135481e-05,7.946318703592086e-07,2.7063638570232876e-06,6.908526508711948e-10,-8.320299446749697e-11,1.409510461154547e-10
1687389616.951386,-7.894166719053667e-05,1.2729930906213521e-08,-9.451231669029485e-06,0.9999999968394436,-2.7656172739288562e-05,7.946508179557795e-07,2.7063954934568897e-06,6.908857888117282e-10,-8.508831585837466e-11,1.42658915292776e-10
1687389616.961386,-7.894166719170228e-05,1.2729957924855406e-08,-9.451236728298204e-06,0.9999999968394436,-2.765617148816284e-05,7.946697637342237e-07,2.706427117835176e-06,6.910085656680861e-10,-8.278658295800602e-11,1.4488905800212e-10
1687389616.9713862,-7.894166719286487e-05,1.2729985042417627e-08,-9.451241787577776e-06,0.9999999968394436,-2.765617027524949e-05,7.946886895134206e-07,2.706458812614918e-06,6.910764513783551e-10,-8.704484966242177e-11,1.42423318567123e-10
1687389616.9813862,-7.8941667193994e-05,1.2730012070098884e-08,-9.45124684701053e-06,0.9999999968394436,-2.7656169029080816e-05,7.94707630700814e-07,2.7064904648548714e-06,6.910272674726087e-10,-8.334966609800894e-11,1.4352854092219296e-10
1687389616.9913862,-7.894166719515085e-05,1.2730039072070339e-08,-9.451251906633638e-06,0.9999999968394434,-2.7656167833102367e-05,7.947266210303011e-07,2.70652198478847e-06,6.908921983192956e-10,-8.573876309505053e-11,1.4373419961104292e-10
1687389617.0013862,-7.894166719633761e-05,1.2730066106245958e-08,-9.451256966158685e-06,0.9999999968394434,-2.7656166564757545e-05,7.947455668156199e-07,2.7065536485619425e-06,6.911567229008138e-10,-8.091842318680758e-11,1.4493349824531357e-10
1687389617.0113862,-7.894166719745701e-05,1.2730093112678954e-08,-9.451262025792195e-06,0.9999999968394434,-2.7656165347708833e-05,7.947644259196437e-07,2.7065852781517652e-06,6.880311807469851e-10,-8.973001988578772e-11,1.4020571665832426e-10
1687389617.0213861,-7.894166719853786e-05,1.2730120120750753e-08,-9.451267085561333e-06,0.9999999968394434,-2.765616416771789e-05,7.947834461784616e-07,2.7066168660121304e-06,6.92237650665013e-10,-8.19467736882137e-11,1.4180772356119152e-10
1687389617.0313861,-7.894166719969507e-05,1.2730147218356054e-08,-9.45127214543069e-06,0.9999999968394434,-2.765616289913842e-05,7.948023979718263e-07,2.706648571408919e-06,6.920564326509269e-10,-8.53938700399756e-11,1.4386113383234158e-10
1687389617.0413861,-7.894166720081362e-05,1.2730174201637846e-08,-9.451277205530894e-06,0.9999999968394432,-2.765616171368025e-05,7.948213143040667e-07,2.7066801687650075e-06,6.896449914774112e-10,-8.47976043164629e-11,1.421792392171952e-10
1687389617.051386,-7.894166720195977e-05,1.2730201229573742e-08,-9.45128226567129e-06,0.9999999968394432,-2.765616049494287e-05,7.9484032308265e-07,2.7067117408770964e-06,6.915521492704781e-10,-8.393005139410387e-11,1.4392534432309123e-10
1687389617.061386,-7.894166720303277e-05,1.2730228218735033e-08,-9.451287325993091e-06,0.9999999968394432,-2.7656159313260884e-05,7.948592897107068e-07,2.706743314941954e-06,6.901076604234287e-10,-8.614569359355508e-11,1.4099282358500664e-10
1687389617.071386,-7.894166720414498e-05,1.2730255304367175e-08,-9.451292386218796e-06,0.9999999968394432,-2.7656158057522946e-05,7.948782297643534e-07,2.7067749541221664e-06,6.909498092990412e-10,-8.353414444232021e-11,1.4194138546349664e-10
1687389617.081386,-7.89416672053531e-05,1.2730282323581304e-08,-9.451297446612954e-06,0.9999999968394431,-2.7656156796352734e-05,7.948971593951747e-07,2.706806654114804e-06,6.906651646897418e-10,-8.298337062651165e-11,1.4440817798699992e-10
1687389617.091386,-7.894166720653618e-05,1.273030940683155e-08,-9.451302507011274e-06,0.999999996839443,-2.7656155572256284e-05,7.94916092722055e-07,2.7068382430538742e-06,6.905634521286712e-10,-8.326194521060799e-11,1.4510949715970892e-10
1687389617.101386,-7.894166720771055e-05,1.273033636989153e-08,-9.451307567462252e-06,0.999999996839443,-2.7656154321124643e-05,7.949350496213213e-07,2.706869811515053e-06,6.909165596061182e-10,-8.621928603040706e-11,1.425232844846204e-10
1687389617.111386,-7.894166720889652e-05,1.2730363421924279e-08,-9.451312627990444e-06,0.999999996839443,-2.7656153064130927e-05,7.949539800393457e-07,2.7069015275626006e-06,6.90824510372981e-10,-8.263060088974943e-11,1.4469987364059413e-10
1687389617.121386,-7.894166721003638e-05,1.2730390491957876e-08,-9.451317688640756e-06,0.999999996839443,-2.7656151847300488e-05,7.949729682999913e-07,2.7069331563910995e-06,6.918239969962046e-10,-8.646733890162335e-11,1.4312807042692597e-10
1687389617.131386,-7.894166721122837e-05,1.27304175445788e-08,-9.45132274932515e-06,0.9999999968394427,-2.765615063147836e-05,7.949918838727193e-07,2.7069647317287793e-06,6.904281093092576e-10,-8.3883470063314e-11,1.442467561905989e-10
1687389617.141386,-7.894166721233478e-05,1.27304445623787e-08,-9.451327810136993e-06,0.9999999968394427,-2.7656149406765653e-05,7.950107949727034e-07,2.706996384705337e-06,6.902254530250332e-10,-8.541576868250369e-11,1.401919335446311e-10
1687389617.151386,-7.894166721339578e-05,1.2730471505777906e-08,-9.451332871200183e-06,0.9999999968394427,-2.765614818922209e-05,7.950298399095389e-07,2.707027937265057e-06,6.915793584009457e-10,-8.205467168087353e-11,1.4146411255636785e-10
1687389617.161386,-7.89416672146082e-05,1.2730498658690229e-08,-9.451337932191742e-06,0.9999999968394427,-2.7656146982880417e-05,7.950487165857975e-07,2.70705965735745e-06,6.89932861223849e-10,-8.672221998626116e-11,1.4473412061331286e-10
1687389617.171386,-7.894166721569616e-05,1.273052561049266e-08,-9.451342993411096e-06,0.9999999968394426,-2.7656145775722772e-05,7.950676601268825e-07,2.7070912147784144e-06,6.896115999175896e-10,-8.492106823828023e-11,1.4119044141420288e-10
1687389617.181386,-7.894166721686007e-05,1.2730552632645257e-08,-9.45134805478222e-06,0.9999999968394425,-2.765614451221412e-05,7.950866757691788e-07,2.707122848385875e-06,6.930665373732304e-10,-8.405099929239763e-11,1.4450276948174767e-10
1687389617.191386,-7.894166721796305e-05,1.2730579730211632e-08,-9.451353116183497e-06,0.9999999968394425,-2.7656143312661838e-05,7.951056132400113e-07,2.707154490821871e-06,6.905591762035645e-10,-8.34924097177808e-11,1.4271418719100547e-10
1687389617.201386,-7.894166721909608e-05,1.273060672007317e-08,-9.451358177648009e-06,0.9999999968394425,-2.7656142073136222e-05,7.951245460051185e-07,2.707186034908706e-06,6.899909210999441e-10,-8.54275767023025e-11,1.4174972948254028e-10
1687389617.211386,-7.89416672202723e-05,1.2730633855988657e-08,-9.451363239147533e-06,0.9999999968394425,-2.765614085677738e-05,7.951434426981663e-07,2.70721781132574e-06,6.904684483286258e-10,-8.510662052528227e-11,1.4468881675222175e-10
1687389617.2213862,-7.89416672214246e-05,1.2730660801661014e-08,-9.451368300682744e-06,0.9999999968394424,-2.765613961204332e-05,7.951624574779229e-07,2.707249297458937e-06,6.915906942805837e-10,-8.542009382998093e-11,1.434243056391524e-10
1687389617.2313862,-7.894166722254868e-05,1.2730687860648841e-08,-9.451373362274176e-06,0.9999999968394423,-2.765613839623715e-05,7.951813471258084e-07,2.7072809574476096e-06,6.894986914953763e-10,-8.53721542861934e-11,1.424454490530093e-10
1687389617.2413862,-7.894166722374577e-05,1.2730714970340481e-08,-9.451378423997435e-06,0.9999999968394423,-2.7656137140934016e-05,7.952002863376291e-07,2.7073126787846286e-06,6.918733016514942e-10,-8.2754954794529e-11,1.4409651473875807e-10
1687389617.2513862,-7.894166722485153e-05,1.2730741954047044e-08,-9.45138348595585e-06,0.9999999968394423,-2.765613591363561e-05,7.95219232434773e-07,2.7073442199896207e-06,6.906723203748262e-10,-8.777419114585473e-11,1.398877424823019e-10
1687389617.2613862,-7.894166722603537e-05,1.273076899308827e-08,-9.451388548000602e-06,0.9999999968394422,-2.7656134663577087e-05,7.952382085459548e-07,2.7073758769605394e-06,6.913781692668819e-10,-8.06892019991758e-11,1.4614364683399996e-10
1687389617.2713861,-7.89416672271766e-05,1.273079606002151e-08,-9.451393610003254e-06,0.9999999968394421,-2.765613346782692e-05,7.952571063980298e-07,2.707407528741227e-06,6.893825865652044e-10,-8.71838130469023e-11,1.4337206066318117e-10
1687389617.2813861,-7.894166722830406e-05,1.2730823086788632e-08,-9.451398672053874e-06,0.9999999968394422,-2.7656132210804964e-05,7.952760317522816e-07,2.7074391260754537e-06,6.905661575119444e-10,-8.28774200220142e-11,1.412329442081895e-10
1687389617.2913861,-7.894166722945072e-05,1.2730850175020024e-08,-9.45140373416159e-06,0.9999999968394421,-2.765613097547654e-05,7.952949314503869e-07,2.707470728470346e-06,6.904219086423778e-10,-8.452543226801149e-11,1.4380363162580046e-10
1687389617.301386,-7.894166723064678e-05,1.273087704539208e-08,-9.451408796588696e-06,0.999999996839442,-2.7656129751534584e-05,7.953139823209658e-07,2.7075023064342484e-06,6.923630025414845e-10,-8.726393251069601e-11,1.4401891435506678e-10
1687389617.311386,-7.894166723175726e-05,1.273090415338302e-08,-9.451413858987653e-06,0.999999996839442,-2.765612854675501e-05,7.953328975749788e-07,2.7075339315553807e-06,6.896533232422275e-10,-8.320485890908474e-11,1.419574886296296e-10
1687389617.321386,-7.894166723286157e-05,1.2730931243187533e-08,-9.45141892136569e-06,0.999999996839442,-2.7656127372687448e-05,7.953518477021745e-07,2.7075655994476666e-06,6.912943481062903e-10,-8.73153738216153e-11,1.432645410619539e-10
1687389617.331386,-7.894166723396846e-05,1.2730958243325459e-08,-9.451423983867148e-06,0.9999999968394419,-2.765612608219359e-05,7.953708157801426e-07,2.707597184507894e-06,6.905909516785262e-10,-7.894446300445943e-11,1.4196705641771707e-10
1687389617.341386,-7.894166723509987e-05,1.273098530263055e-08,-9.451429046368496e-06,0.9999999968394417,-2.7656124878700392e-05,7.953897088554442e-07,2.707628875227571e-06,6.900278773861611e-10,-8.733272189820778e-11,1.4218382786723638e-10
1687389617.351386,-7.894166723631395e-05,1.2731012295264593e-08,-9.451434109114403e-06,0.9999999968394419,-2.765612365943665e-05,7.954086528894842e-07,2.7076605106541013e-06,6.907086334417897e-10,-8.34483823238274e-11,1.4609859511650396e-10
1687389617.361386,-7.894166723749684e-05,1.2731039407804341e-08,-9.451439171891366e-06,0.9999999968394417,-2.765612242219591e-05,7.95427537692772e-07,2.7076921567349496e-06,6.910821449509161e-10,-8.739122512343675e-11,1.4431760796384684e-10
1687389617.371386,-7.894166723863585e-05,1.2731066332871654e-08,-9.451444234873206e-06,0.9999999968394416,-2.7656121175841883e-05,7.954465859300902e-07,2.707723697342452e-06,6.922134399467217e-10,-8.367894604269219e-11,1.4249984068660893e-10
1687389617.381386,-7.894166723980231e-05,1.2731093373680527e-08,-9.45144929783179e-06,0.9999999968394416,-2.7656119974651505e-05,7.954655147196318e-07,2.707755320818553e-06,6.898971742868534e-10,-8.532613330340022e-11,1.435999946228806e-10
1687389617.391386,-7.894166724093927e-05,1.2731120446207707e-08,-9.451454360804055e-06,0.9999999968394416,-2.76561186861848e-05,7.95484407086882e-07,2.707786990483695e-06,6.896594402431009e-10,-8.052715895545006e-11,1.430406171908368e-10
1687389617.401386,-7.894166724208609e-05,1.2731147450813458e-08,-9.451459423907864e-06,0.9999999968394415,-2.7656117407357735e-05,7.955034000546292e-07,2.7078186165422696e-06,6.927438738969275e-10,-8.446491650015027e-11,1.4320767791015237e-10
1687389617.411386,-7.894166724328164e-05,1.2731174571321499e-08,-9.451464487011053e-06,0.9999999968394414,-2.7656116238250573e-05,7.955222394089574e-07,2.7078503213237542e-06,6.890139057186495e-10,-8.747627839000577e-11,1.4419267273638135e-10
1687389617.421386,-7.894166724436228e-05,1.2731201512282343e-08,-9.451469550264886e-06,0.9999999968394415,-2.7656115027170762e-05,7.955412357730854e-07,2.7078818904194915e-06,6.910625521069908e-10,-8.571230721123347e-11,1.404666953199864e-10
1687389617.431386,-7.894166724551207e-05,1.2731228589622488e-08,-9.45147461359043e-06,0.9999999968394414,-2.765611376834634e-05,7.955602048564974e-07,2.7079135324518416e-06,6.916011849465073e-10,-8.121157796917102e-11,1.431737950908157e-10
1687389617.441386,-7.894166724667087e-05,1.2731255600339464e-08,-9.451479677101182e-06,0.9999999968394413,-2.7656112545175007e-05,7.955791197645585e-07,2.7079451583105156e-06,6.895356850178414e-10,-8.398558638348713e-11,1.4318272648492763e-10
1687389617.451386,-7.894166724787833e-05,1.2731282565268938e-08,-9.45148474075642e-06,0.9999999968394413,-2.7656111369750784e-05,7.955980770346576e-07,2.7079767313662347e-06,6.916829094897483e-10,-8.728605749188012e-11,1.4582893242914945e-10
1687389617.461386,-7.894166724896302e-05,1.2731309519418885e-08,-9.451489804730544e-06,0.9999999968394413,-2.7656110093748914e-05,7.956171084434769e-07,2.7080083195899385e-06,6.918532290156631e-10,-8.469283222790748e-11,1.3995963424307337e-10
1687389617.4713862,-7.894166725011997e-05,1.2731336686672456e-08,-9.451494868555364e-06,0.9999999968394412,-2.7656108905320147e-05,7.956360023160395e-07,2.708040001600418e-06,6.898739243584302e-10,-8.784739499558838e-11,1.4378650903780673e-10
1687389617.4813862,-7.894166725122524e-05,1.2731363722063456e-08,-9.45149993249894e-06,0.9999999968394411,-2.765610766120516e-05,7.956549769874433e-07,2.708071667061085e-06,6.917756064343702e-10,-8.267719118722413e-11,1.4174281437477307e-10
1687389617.4913862,-7.894166725234522e-05,1.2731390713770369e-08,-9.451504996557373e-06,0.9999999968394412,-2.7656106418677555e-05,7.956739755786336e-07,2.708103205942118e-06,6.911936984953216e-10,-8.311050251696789e-11,1.429558431466009e-10
1687389617.5013862,-7.894166725344335e-05,1.273141772463984e-08,-9.45151006069918e-06,0.9999999968394411,-2.765610519907992e-05,7.956929109656897e-07,2.708134849407325e-06,6.904203565578887e-10,-8.396637583589415e-11,1.4260869918741187e-10
1687389617.5113862,-7.89416672546587e-05,1.2731444785786447e-08,-9.451515124899789e-06,0.999999996839441,-2.7656103944602106e-05,7.957118271353893e-07,2.708166508692268e-06,6.90791293366061e-10,-8.20080990050639e-11,1.4567032808193382e-10
1687389617.5213861,-7.894166725585504e-05,1.2731471899050314e-08,-9.451520189187078e-06,0.999999996839441,-2.7656102705510235e-05,7.957307464247705e-07,2.708198218756584e-06,6.911854298949009e-10,-8.86387147655439e-11,1.4417295550623592e-10
1687389617.5313861,-7.894166725700577e-05,1.2731498815545394e-08,-9.451525253614428e-06,0.999999996839441,-2.765610152589252e-05,7.957497792686433e-07,2.7082297240613256e-06,6.916486954284892e-10,-8.327822374181812e-11,1.434360952888164e-10
1687389617.5413861,-7.894166725816367e-05,1.2731525987203394e-08,-9.451530318002741e-06,0.9999999968394409,-2.7656100297693725e-05,7.957686575250856e-07,2.7082614458029675e-06,6.89858104098701e-10,-8.781221829332374e-11,1.42238319683164e-10
1687389617.551386,-7.894166725927804e-05,1.2731553001236285e-08,-9.451535382606488e-06,0.9999999968394407,-2.765609901822136e-05,7.957876250336391e-07,2.7082930793133424e-06,6.912979748813337e-10,-8.113128206789798e-11,1.4166839360510023e-10
1687389617.561386,-7.89416672604842e-05,1.2731580049040901e-08,-9.45154044721324e-06,0.9999999968394409,-2.7656097831978793e-05,7.958066050525221e-07,2.7083246639420906e-06,6.906834449342442e-10,-8.601171447920284e-11,1.4557704778141683e-10
1687389617.571386,-7.894166726163966e-05,1.2731606981713645e-08,-9.451545512006931e-06,0.9999999968394407,-2.765609658080095e-05,7.958255370406953e-07,2.708356271959144e-06,6.905185600064755e-10,-8.283881442504585e-11,1.4302816178684156e-10
1687389617.581386,-7.894166726277367e-05,1.2731634085208936e-08,-9.451550576831967e-06,0.9999999968394406,-2.7656095351435095e-05,7.958445083899133e-07,2.7083879443428e-06,6.918895873316604e-10,-8.834434112578996e-11,1.4087788100883384e-10
1687389617.591386,-7.894166726387656e-05,1.2731661166831759e-08,-9.451555641647171e-06,0.9999999968394406,-2.765609415822036e-05,7.958634151187349e-07,2.7084196056581404e-06,6.897590402711634e-10,-8.30152484735692e-11,1.4318004166615368e-10
1687389617.601386,-7.894166726507033e-05,1.2731688230151566e-08,-9.451560706573248e-06,0.9999999968394406,-2.76560928979879e-05,7.958823375149221e-07,2.7084512378375958e-06,6.908765237846822e-10,-8.174102154402391e-11,1.4446421194672482e-10
1687389617.611386,-7.894166726622727e-05,1.2731715251098859e-08,-9.451565771658388e-06,0.9999999968394405,-2.765609163997318e-05,7.959013311819933e-07,2.7084828770430996e-06,6.923626433275007e-10,-8.892973507104305e-11,1.4128241912128503e-10
1687389617.621386,-7.894166726729678e-05,1.2731742203591752e-08,-9.451570836799101e-06,0.9999999968394404,-2.7656090476837008e-05,7.959202678725271e-07,2.7085144184808098e-06,6.886162247249214e-10,-8.237588450719982e-11,1.4237558300849821e-10
1687389617.631386,-7.89416672684206e-05,1.2731769222510177e-08,-9.451575902084142e-06,0.9999999968394405,-2.7656089245026277e-05,7.95939208071189e-07,2.70854603621552e-06,6.904906616139681e-10,-8.324576019733341e-11,1.4229458368750816e-10
1687389617.641386,-7.894166726962664e-05,1.2731796295922247e-08,-9.451580967494112e-06,0.9999999968394404,-2.7656088022870826e-05,7.959581605451523e-07,2.7085777116983447e-06,6.919985283538292e-10,-8.615883160805677e-11,1.4405001335983162e-10
1687389617.651386,-7.894166727077863e-05,1.2731823275693272e-08,-9.451586033031908e-06,0.9999999968394403,-2.765608676977159e-05,7.959771200089514e-07,2.708609319243402e-06,6.910010505334857e-10,-8.305584347094453e-11,1.4391210847268295e-10
1687389617.661386,-7.894166727195334e-05,1.2731850396442892e-08,-9.451591098592775e-06,0.9999999968394403,-2.765608551466229e-05,7.959960433799713e-07,2.7086410018977975e-06,6.908337428444456e-10,-8.345106395037755e-11,1.426679495952887e-10
1687389617.671386,-7.894166727309164e-05,1.273187734003572e-08,-9.451596164260089e-06,0.9999999968394403,-2.7656084302879992e-05,7.960150448035831e-07,2.7086725389741236e-06,6.907785042756422e-10,-8.598376016943875e-11,1.4378428015261336e-10
1687389617.681386,-7.894166727421844e-05,1.2731904469040263e-08,-9.451601229898561e-06,0.9999999968394402,-2.7656083106120846e-05,7.960338971821458e-07,2.708704249402355e-06,6.896684597877223e-10,-8.576348398913941e-11,1.4252268942497537e-10
1687389617.691386,-7.894166727536494e-05,1.2731931441807125e-08,-9.451606295766691e-06,0.9999999968394401,-2.7656081894295515e-05,7.960529396564521e-07,2.7087358806126633e-06,6.923841898339296e-10,-8.488557377058574e-11,1.4412707002962516e-10
1687389617.701386,-7.89416672765366e-05,1.2731958481946065e-08,-9.451611361785872e-06,0.9999999968394402,-2.7656080630649205e-05,7.960719486975837e-07,2.708767489950382e-06,6.92621182539636e-10,-8.241690181156591e-11,1.44465541216921e-10
1687389617.711386,-7.894166727766993e-05,1.2731985470674392e-08,-9.451616427941562e-06,0.9999999968394401,-2.7656079400026604e-05,7.960908854546548e-07,2.7087990070092595e-06,6.89448845634133e-10,-8.482838363289775e-11,1.4269734347730281e-10
1687389617.7213862,-7.894166727881893e-05,1.2732012490606767e-08,-9.451621494234301e-06,0.99999999683944,-2.7656078184492345e-05,7.961098543578876e-07,2.7088306902892892e-06,6.918217005144976e-10,-8.767837764167943e-11,1.4246321725827151e-10
1687389617.7313862,-7.894166727990513e-05,1.2732039568555352e-08,-9.451626560621459e-06,0.99999999683944,-2.7656076977991185e-05,7.961288463344816e-07,2.7088623152965744e-06,6.912822676360008e-10,-8.095689531389004e-11,1.4107790922277377e-10
1687389617.7413862,-7.894166728106476e-05,1.2732066703358367e-08,-9.451631626979369e-06,0.99999999683944,-2.765607572225374e-05,7.961477389649145e-07,2.7088940493827923e-06,6.907254579874361e-10,-8.803413648693587e-11,1.4244521979577817e-10
1687389617.7513862,-7.89416672822293e-05,1.2732093666186817e-08,-9.451636693558248e-06,0.9999999968394399,-2.765607452769769e-05,7.961666886225299e-07,2.7089256565681274e-06,6.906409331343916e-10,-8.255865023398115e-11,1.449583125369452e-10
1687389617.7613862,-7.894166728335939e-05,1.2732120738238654e-08,-9.45164176020998e-06,0.9999999968394397,-2.7656073274641533e-05,7.961857464735819e-07,2.708957253632989e-06,6.931938008757123e-10,-8.534014824477876e-11,1.428411912485021e-10
1687389617.7713861,-7.894166728451283e-05,1.2732147731077685e-08,-9.451646826909733e-06,0.9999999968394399,-2.7656072047951248e-05,7.962046821084662e-07,2.7089888773982736e-06,6.902766981125241e-10,-8.49014966183119e-11,1.439943037415897e-10
1687389617.7813861,-7.89416672857125e-05,1.273217479575109e-08,-9.45165189352509e-06,0.9999999968394397,-2.7656070809115943e-05,7.962235861655333e-07,2.7090205596539255e-06,6.898429190855773e-10,-8.554544118377521e-11,1.435564128103933e-10
1687389617.7913861,-7.894166728683582e-05,1.2732201884302522e-08,-9.451656960182445e-06,0.9999999968394396,-2.765606959561566e-05,7.962425232363624e-07,2.709052177086322e-06,6.909141397499591e-10,-8.480685393001761e-11,1.420919300078877e-10
1687389617.801386,-7.894166728795188e-05,1.2732228919039995e-08,-9.451662027026537e-06,0.9999999968394396,-2.7656068369070114e-05,7.962615200080053e-07,2.709083765493976e-06,6.91604241392197e-10,-8.255035740240887e-11,1.4414384598327895e-10
1687389617.811386,-7.894166728914168e-05,1.2732255994616672e-08,-9.451667093966338e-06,0.9999999968394396,-2.765606711119326e-05,7.962804090356553e-07,2.7091154646746116e-06,6.903901960999149e-10,-8.469546699601777e-11,1.432486247088419e-10
1687389617.821386,-7.894166729027709e-05,1.2732282961705144e-08,-9.451672161066311e-06,0.9999999968394395,-2.7656065881602312e-05,7.962994039645835e-07,2.7091470441244605e-06,6.913722500101542e-10,-8.519667398286597e-11,1.433836248145e-10
1687389617.831386,-7.894166729144e-05,1.2732310056572901e-08,-9.451677228187393e-06,0.9999999968394394,-2.7656064687040146e-05,7.963183632196123e-07,2.7091787316997054e-06,6.91226241306392e-10,-8.873328716193293e-11,1.425537644454258e-10
1687389617.841386,-7.894166729251085e-05,1.2732336967829931e-08,-9.451682295463446e-06,0.9999999968394395,-2.7656063464393755e-05,7.963373217969803e-07,2.7092102320261865e-06,6.893413660765449e-10,-8.048292940359877e-11,1.4163130542915904e-10
1687389617.851386,-7.894166729370334e-05,1.2732364118556437e-08,-9.451687362792283e-06,0.9999999968394394,-2.7656062182048984e-05,7.963562652811621e-07,2.7092420003528258e-06,6.925868624375783e-10,-8.496662557296993e-11,1.4419562388030131e-10
1687389617.861386,-7.894166729489413e-05,1.2732391117434681e-08,-9.451692430263578e-06,0.9999999968394393,-2.765606097872847e-05,7.963752606997199e-07,2.709273547905305e-06,6.914440831342172e-10,-8.319754387338921e-11,1.4597843910304944e-10
1687389617.871386,-7.894166729605262e-05,1.2732418204735083e-08,-9.451697497671663e-06,0.9999999968394393,-2.7656059718971316e-05,7.963941477782505e-07,2.709305255766049e-06,6.895691977306088e-10,-8.582233653859337e-11,1.418323065493089e-10
1687389617.881386,-7.894166729719137e-05,1.2732445249554532e-08,-9.451702565215684e-06,0.9999999968394393,-2.7656058502436627e-05,7.964131182035099e-07,2.7093368788987424e-06,6.918284182779156e-10,-8.420508969529306e-11,1.437769619818707e-10
1687389617.891386,-7.894166729829659e-05,1.2732472240998932e-08,-9.451707632827204e-06,0.9999999968394392,-2.7656057323955e-05,7.964320995253138e-07,2.709368475016056e-06,6.904678379301528e-10,-8.657656296282968e-11,1.4264931232092324e-10
1687389617.901386,-7.894166729946086e-05,1.273249931457465e-08,-9.451712700605698e-06,0.9999999968394391,-2.7656056090527023e-05,7.964510180292154e-07,2.7094001356140794e-06,6.909614301622614e-10,-8.398985902950507e-11,1.435934012233537e-10
1687389617.911386,-7.894166730057607e-05,1.2732526397920008e-08,-9.451717768478872e-06,0.9999999968394392,-2.7656054810973256e-05,7.964700012632005e-07,2.7094318133402637e-06,6.920759294944823e-10,-8.536795570666126e-11,1.4106390063326105e-10
1687389617.921386,-7.894166730176677e-05,1.2732553464250722e-08,-9.451722836272103e-06,0.9999999968394391,-2.765605363145496e-05,7.964888803349553e-07,2.7094634388748484e-06,6.89144375325502e-10,-8.64507457292249e-11,1.4385351687647095e-10
1687389617.931386,-7.894166730288713e-05,1.2732580445695575e-08,-9.45172790422424e-06,0.999999996839439,-2.7656052383509955e-05,7.965078403293314e-07,2.709495015000945e-06,6.912866444405723e-10,-8.14287253342341e-11,1.4347872431553228e-10
1687389617.941386,-7.894166730400127e-05,1.2732607481282669e-08,-9.451732972292654e-06,0.999999996839439,-2.765605116429399e-05,7.965268127950401e-07,2.7095266361092597e-06,6.913503466442973e-10,-8.43727743871019e-11,1.4321815508700045e-10
1687389617.951386,-7.894166730520335e-05,1.2732634507698322e-08,-9.451738040387083e-06,0.999999996839439,-2.765604991475222e-05,7.965457493304775e-07,2.7095582763042154e-06,6.907328071086619e-10,-8.47486490221482e-11,1.427878210779694e-10
1687389617.961386,-7.894166730633272e-05,1.2732661567857881e-08,-9.451743108587961e-06,0.9999999968394389,-2.7656048701190224e-05,7.965646870829221e-07,2.7095899424127185e-06,6.913227202326221e-10,-8.666324652202581e-11,1.4351657541573204e-10
1687389617.9713862,-7.894166730746267e-05,1.2732688554263105e-08,-9.45174817696679e-06,0.9999999968394387,-2.7656047456869917e-05,7.965836752567996e-07,2.7096215708571583e-06,6.908821863002935e-10,-8.153550556041844e-11,1.433455018842977e-10
1687389617.9813862,-7.894166730857251e-05,1.2732715574089905e-08,-9.451753245439104e-06,0.9999999968394389,-2.7656046240419125e-05,7.966026049795492e-07,2.7096531285984642e-06,6.898001976892797e-10,-8.571264433264568e-11,1.4105945465942384e-10
1687389617.9913862,-7.894166730974253e-05,1.2732742579387744e-08,-9.451758313990785e-06,0.9999999968394387,-2.765604502413311e-05,7.966215973974917e-07,2.7096847743972437e-06,6.922085110872141e-10,-8.416275984526802e-11,1.4561305185942645e-10
1687389618.0013862,-7.894166731091149e-05,1.2732769608969994e-08,-9.451763382779473e-06,0.9999999968394386,-2.7656043781590028e-05,7.966405775649955e-07,2.709716415370325e-06,6.913299646018319e-10,-8.414670339128153e-11,1.4292048099175678e-10
1687389618.0113862,-7.894166731209514e-05,1.2732796739305067e-08,-9.451768451457438e-06,0.9999999968394386,-2.7656042556453483e-05,7.966594445636837e-07,2.7097481165668803e-06,6.904190545250249e-10,-8.74368323183052e-11,1.4379864418517056e-10
1687389618.0213861,-7.894166731324693e-05,1.2732823869342093e-08,-9.451773520130947e-06,0.9999999968394386,-2.7656041325585065e-05,7.966783832619432e-07,2.7097798102958336e-06,6.910700560925829e-10,-8.390039944770178e-11,1.4281524434498418e-10
1687389618.0313861,-7.894166731437085e-05,1.273285087856871e-08,-9.451778588869715e-06,0.9999999968394385,-2.7656040088083333e-05,7.966972929128623e-07,2.70981147041948e-06,6.90142078994188e-10,-8.404497241570087e-11,1.4426734731484987e-10
1687389618.0413861,-7.894166731558474e-05,1.2732877855365066e-08,-9.451783657738709e-06,0.9999999968394384,-2.765603885303037e-05,7.967162565247612e-07,2.7098430172103504e-06,6.912121737505568e-10,-8.517304403908624e-11,1.435505960164556e-10
1687389618.051386,-7.894166731675736e-05,1.2732904844910097e-08,-9.451788726758421e-06,0.9999999968394385,-2.7656037597002234e-05,7.967352369164747e-07,2.7098746292586786e-06,6.91272110954081e-10,-8.172475985164265e-11,1.4368853944401668e-10
1687389618.061386,-7.894166731796787e-05,1.2732931942456407e-08,-9.451793795888184e-06,0.9999999968394384,-2.7656036345555947e-05,7.967541943738652e-07,2.709906344906676e-06,6.916919145841794e-10,-8.775381404921797e-11,1.4375399525128016e-10
1687389618.071386,-7.894166731908164e-05,1.2732958894948788e-08,-9.451798865186835e-06,0.9999999968394383,-2.765603515826769e-05,7.967731932700004e-07,2.7099378478534978e-06,6.908384724673688e-10,-8.686743295549391e-11,1.4402245862832385e-10
1687389618.081386,-7.894166732024172e-05,1.2732985994335334e-08,-9.451803934610717e-06,0.9999999968394382,-2.7656033908753583e-05,7.967921460256502e-07,2.7099695366592486e-06,6.913389822569638e-10,-8.119237458392396e-11,1.409271848653877e-10
1687389618.091386,-7.89416673213204e-05,1.2733013046154526e-08,-9.451809004124811e-06,0.9999999968394383,-2.765603273275724e-05,7.968111001499047e-07,2.7100011805059268e-06,6.912952070208817e-10,-8.831636962653241e-11,1.4138365658775298e-10
1687389618.101386,-7.894166732248464e-05,1.2733040061237243e-08,-9.451814073765926e-06,0.9999999968394382,-2.7656031503495282e-05,7.968300574597311e-07,2.7100327914454245e-06,6.900472845318893e-10,-8.550666369475824e-11,1.4357359721523824e-10
1687389618.111386,-7.894166732360366e-05,1.2733067065255425e-08,-9.451819143526699e-06,0.9999999968394381,-2.7656030252345375e-05,7.968490568997815e-07,2.710064372747219e-06,6.91532927045563e-10,-8.084665715253311e-11,1.4371936629103415e-10
1687389618.121386,-7.894166732476485e-05,1.2733094126593968e-08,-9.451824213303129e-06,0.9999999968394382,-2.7656029038569584e-05,7.968679938465574e-07,2.71009608249407e-06,6.915520677537255e-10,-8.474176159163562e-11,1.4337188459811868e-10
1687389618.131386,-7.894166732590317e-05,1.2733121256467552e-08,-9.451829283125722e-06,0.9999999968394381,-2.7656027799277577e-05,7.968869310279486e-07,2.7101277459785406e-06,6.91257301403291e-10,-8.533156421884281e-11,1.4266585530771295e-10
1687389618.141386,-7.894166732704466e-05,1.2733148254196367e-08,-9.45183435310517e-06,0.999999996839438,-2.7656026566011304e-05,7.969058759411093e-07,2.710159369278671e-06,6.901956231870762e-10,-8.67935974680729e-11,1.4352173768514041e-10
1687389618.151386,-7.89416673282199e-05,1.2733175291862283e-08,-9.451839423125881e-06,0.9999999968394379,-2.7656025311290398e-05,7.969248585918048e-07,2.710190952903405e-06,6.913562796380446e-10,-8.116644536756988e-11,1.434436540245228e-10
1687389618.161386,-7.894166732940391e-05,1.273320233404128e-08,-9.451844493253887e-06,0.999999996839438,-2.7656024081128324e-05,7.969438145744477e-07,2.7102225818577483e-06,6.918888590327271e-10,-8.501449389990083e-11,1.452092429312918e-10
1687389618.171386,-7.894166733056147e-05,1.2733229401039453e-08,-9.451849563372832e-06,0.9999999968394379,-2.7656022869603452e-05,7.969627381302973e-07,2.7102542510818233e-06,6.903852956970199e-10,-8.635444198056896e-11,1.4274779294570894e-10
1687389618.181386,-7.8941667331634e-05,1.2733256439928514e-08,-9.451854633669013e-06,0.9999999968394377,-2.765602165893179e-05,7.969816854649668e-07,2.7102859086553585e-06,6.900558485342237e-10,-8.65217659403849e-11,1.4188185793830453e-10
1687389618.191386,-7.894166733281115e-05,1.2733283517343476e-08,-9.451859704055078e-06,0.9999999968394377,-2.7656020422018495e-05,7.970006511094428e-07,2.7103175347655077e-06,6.921196876591021e-10,-8.348128195355004e-11,1.4266911019061387e-10
1687389618.201386,-7.894166733390149e-05,1.2733310509213997e-08,-9.451864774610067e-06,0.9999999968394377,-2.765601919311865e-05,7.970196227190106e-07,2.710349128651983e-06,6.906012639012485e-10,-8.342979865161696e-11,1.4219310634219738e-10
1687389618.211386,-7.894166733509112e-05,1.2733337560626887e-08,-9.451869845158194e-06,0.9999999968394376,-2.7656017956025536e-05,7.970385905530033e-07,2.7103807994428757e-06,6.92004914899807e-10,-8.620674970873295e-11,1.4512142782911372e-10
1687389618.2213862,-7.894166733621297e-05,1.2733364654030676e-08,-9.451874915835373e-06,0.9999999968394375,-2.7656016735971317e-05,7.970575327239107e-07,2.710412488269162e-06,6.907763151313402e-10,-8.50913925784328e-11,1.4222036530972506e-10
1687389618.2313862,-7.894166733738518e-05,1.2733391594215076e-08,-9.451879986595308e-06,0.9999999968394376,-2.7656015507093288e-05,7.97076504916747e-07,2.7104440647560676e-06,6.910827181340539e-10,-8.479201657892326e-11,1.43512446991617e-10
1687389618.2413862,-7.894166733852845e-05,1.2733418642141959e-08,-9.451885057430202e-06,0.9999999968394375,-2.7656014276611144e-05,7.970954512792107e-07,2.7104756824882868e-06,6.910910935317584e-10,-8.514543557507799e-11,1.4396575673290555e-10
1687389618.2513862,-7.894166733972123e-05,1.273344570778382e-08,-9.45189012832191e-06,0.9999999968394374,-2.7656013033658155e-05,7.97114402263879e-07,2.7105073248536407e-06,6.915894432178771e-10,-8.26999965648186e-11,1.4354460039671409e-10
1687389618.2613862,-7.894166734092639e-05,1.273347279566482e-08,-9.451895199319305e-06,0.9999999968394374,-2.7656011755685656e-05,7.971333431742949e-07,2.7105390292144486e-06,6.911752688697473e-10,-8.478305914173616e-11,1.4445648904773897e-10
1687389618.2713861,-7.894166734204445e-05,1.2733499841031662e-08,-9.451900270444815e-06,0.9999999968394374,-2.7656010577861237e-05,7.971522981595916e-07,2.710570662021805e-06,6.90427815125065e-10,-8.449772769198018e-11,1.4462624278669533e-10
1687389618.2813861,-7.894166734317904e-05,1.2733526891351137e-08,-9.451905341578911e-06,0.9999999968394373,-2.7656009338032647e-05,7.97171228854344e-07,2.710602328661966e-06,6.91015442062519e-10,-8.446094120895538e-11,1.4174171230360868e-10
1687389618.2913861,-7.894166734433072e-05,1.273355395819608e-08,-9.451910412858962e-06,0.9999999968394372,-2.765600810826652e-05,7.971901998862143e-07,2.7106339626325745e-06,6.918162166068128e-10,-8.586562675523697e-11,1.4413830633948412e-10
1687389618.301386,-7.894166734550545e-05,1.2733580924027594e-08,-9.451915484242808e-06,0.9999999968394373,-2.7656006850766317e-05,7.972091502502675e-07,2.710665556753503e-06,6.902948834398723e-10,-8.502498981574249e-11,1.4238810531133718e-10
1687389618.311386,-7.894166734665621e-05,1.273360798197393e-08,-9.451920555773777e-06,0.9999999968394372,-2.765600565068387e-05,7.97228114634788e-07,2.7106971653473897e-06,6.916980585627665e-10,-8.715088205337154e-11,1.4374003192545058e-10
1687389618.321386,-7.894166734778829e-05,1.2733635050012233e-08,-9.45192562717636e-06,0.9999999968394371,-2.765600441727921e-05,7.972470330545609e-07,2.710728879475286e-06,6.901210816587858e-10,-8.294677595449472e-11,1.421980650267634e-10
1687389618.331386,-7.894166734894426e-05,1.2733662164231819e-08,-9.451930698720054e-06,0.9999999968394371,-2.7656003197471307e-05,7.972659786480642e-07,2.7107605703499803e-06,6.916660507897971e-10,-8.544771587196467e-11,1.431488123550553e-10
1687389618.341386,-7.894166735006303e-05,1.2733689174010177e-08,-9.451935770458281e-06,0.9999999968394371,-2.765600196779527e-05,7.972849525813858e-07,2.7107921578657183e-06,6.909481669971614e-10,-8.303183280919549e-11,1.4291088461953602e-10
1687389618.351386,-7.894166735122947e-05,1.2733716177902226e-08,-9.451940842226596e-06,0.999999996839437,-2.765600072079693e-05,7.973038930070945e-07,2.7108237922540377e-06,6.912534778275875e-10,-8.533180658083061e-11,1.4429983155700034e-10
1687389618.361386,-7.894166735239687e-05,1.2733743184924552e-08,-9.451945914087235e-06,0.9999999968394369,-2.7655999468530215e-05,7.973228881400404e-07,2.7108553976349097e-06,6.911330038276239e-10,-8.289627290730389e-11,1.4608275938740616e-10
1687389618.371386,-7.894166735357132e-05,1.2733770196239714e-08,-9.451950986068822e-06,0.999999996839437,-2.765599827225177e-05,7.973418589654935e-07,2.7108869592048913e-06,6.911415767016297e-10,-8.570849586268691e-11,1.4351716854409077e-10
1687389618.381386,-7.894166735469031e-05,1.2733797326569766e-08,-9.451956058091083e-06,0.9999999968394369,-2.7655996999949946e-05,7.973607894982819e-07,2.7109186367624783e-06,6.913442670234275e-10,-8.88018130048066e-11,1.4111303589499951e-10
1687389618.391386,-7.894166735583565e-05,1.2733824317791267e-08,-9.451961130258145e-06,0.9999999968394367,-2.7655995768570873e-05,7.973797268891429e-07,2.7109502685792494e-06,6.902073811435479e-10,-8.037398515034359e-11,1.4348355954660968e-10
1687389618.401386,-7.894166735702651e-05,1.2733851339831864e-08,-9.45196620254242e-06,0.9999999968394367,-2.7655994532358765e-05,7.973987273744252e-07,2.7109818975206367e-06,6.921671058673776e-10,-8.301125230306292e-11,1.451460559618341e-10
1687389618.411386,-7.894166735811819e-05,1.2733878465016609e-08,-9.451971274793725e-06,0.9999999968394367,-2.76559933113294e-05,7.974176363374182e-07,2.711013568341333e-06,6.903286870526085e-10,-8.961171922079779e-11,1.4023039349822037e-10
1687389618.421386,-7.894166735929958e-05,1.2733905484025423e-08,-9.45197634719952e-06,0.9999999968394366,-2.7655992085672652e-05,7.974365941839464e-07,2.711045196094665e-06,6.911673838168729e-10,-8.231542768236684e-11,1.4501950426848497e-10
1687389618.431386,-7.8941667360438e-05,1.2733932509204757e-08,-9.45198141974689e-06,0.9999999968394365,-2.765599086493938e-05,7.974555825976588e-07,2.71107680390301e-06,6.916614363602506e-10,-8.472072174533139e-11,1.4412921716678443e-10
1687389618.441386,-7.894166736164904e-05,1.2733959611894947e-08,-9.451986492260316e-06,0.9999999968394366,-2.765598962265434e-05,7.974744874036149e-07,2.711108532477428e-06,6.910466807448504e-10,-8.722179630037297e-11,1.4384843303341656e-10
1687389618.451386,-7.89416673627808e-05,1.2733986633378232e-08,-9.451991565046078e-06,0.9999999968394365,-2.765598839553331e-05,7.974934856174079e-07,2.7111401037387394e-06,6.919195966823841e-10,-8.246588439072708e-11,1.4384182557543226e-10
1687389618.461386,-7.894166736396753e-05,1.2734013667225562e-08,-9.451996637953463e-06,0.9999999968394364,-2.7655987157219393e-05,7.975124670514904e-07,2.7111717377607002e-06,6.911618290129902e-10,-8.415651885007175e-11,1.4283882704245812e-10
1687389618.4713862,-7.894166736513574e-05,1.2734040692086818e-08,-9.452001710868426e-06,0.9999999968394364,-2.765598596324264e-05,7.975313830164295e-07,2.711203392648001e-06,6.898761091982231e-10,-8.690136556488674e-11,1.4358735774859136e-10
1687389618.4813862,-7.894166736627208e-05,1.2734067756155882e-08,-9.452006783727577e-06,0.9999999968394364,-2.7655984703223125e-05,7.975503277085231e-07,2.7112351047174926e-06,6.915599303325832e-10,-8.323917782153214e-11,1.4322305948699882e-10
1687389618.4913862,-7.894166736744095e-05,1.2734094812955384e-08,-9.45201185653887e-06,0.9999999968394363,-2.7655983469668654e-05,7.975692516003952e-07,2.711266728471495e-06,6.898512146643666e-10,-8.478035181381572e-11,1.4312002565483347e-10
1687389618.5013862,-7.894166736860867e-05,1.273412181861646e-08,-9.452016929608094e-06,0.9999999968394362,-2.7655982196755127e-05,7.975882503060247e-07,2.711298342783159e-06,6.927806878453175e-10,-8.213232603043142e-11,1.4285285140726757e-10
1687389618.5113862,-7.894166736981409e-05,1.2734148863585593e-08,-9.452022002862684e-06,0.9999999968394363,-2.765598096197115e-05,7.976071791561964e-07,2.711329990638709e-06,6.912216881680126e-10,-8.579846456773407e-11,1.4521573658100733e-10
1687389618.5213861,-7.894166737096119e-05,1.2734175994425028e-08,-9.452027076146254e-06,0.9999999968394362,-2.7655979745949997e-05,7.976260857050342e-07,2.7113617232467968e-06,6.899851681030442e-10,-8.782847096249264e-11,1.4093292620838594e-10
1687389618.5313861,-7.894166737209848e-05,1.2734202951204644e-08,-9.452032149512977e-06,0.9999999968394361,-2.7655978522569534e-05,7.976451229872284e-07,2.711393215065163e-06,6.921062248510067e-10,-8.434066668920168e-11,1.4388467633337582e-10
1687389618.5413861,-7.894166737325821e-05,1.2734229978193834e-08,-9.452037223015576e-06,0.9999999968394361,-2.7655977286955106e-05,7.976640421221662e-07,2.7114248961754422e-06,6.908161929265439e-10,-8.458933820825878e-11,1.428680721141957e-10
1687389618.551386,-7.894166737439459e-05,1.2734256975254567e-08,-9.452042296678899e-06,0.9999999968394361,-2.76559760812319e-05,7.976829759712031e-07,2.7114565736225346e-06,6.902414805768009e-10,-8.269017571597576e-11,1.4394898918668666e-10
1687389618.561386,-7.894166737555787e-05,1.2734284131731902e-08,-9.452047370279733e-06,0.999999996839436,-2.7655974823080888e-05,7.977019227149306e-07,2.711488229447833e-06,6.908052038993211e-10,-8.516991636557633e-11,1.4305623270804281e-10
1687389618.571386,-7.89416673766991e-05,1.2734311137906127e-08,-9.452052444072946e-06,0.9999999968394359,-2.765597361846541e-05,7.977209021496326e-07,2.7115198284531767e-06,6.921765946982214e-10,-8.524760887475282e-11,1.4378313152173398e-10
1687389618.581386,-7.894166737784441e-05,1.273433814216378e-08,-9.452057518086772e-06,0.999999996839436,-2.7655972375701322e-05,7.97739922290885e-07,2.711551504501861e-06,6.92064248880105e-10,-8.628150289614978e-11,1.418265307197292e-10
1687389618.591386,-7.8941667378995e-05,1.2734365113632524e-08,-9.452062592185868e-06,0.9999999968394359,-2.7655971156151776e-05,7.977588860493756e-07,2.7115830707914403e-06,6.903341200726184e-10,-8.303462875982202e-11,1.4408809351422778e-10
1687389618.601386,-7.894166738012068e-05,1.2734392223714781e-08,-9.452067666363959e-06,0.9999999968394357,-2.7655969919932285e-05,7.977778670297946e-07,2.7116146810527966e-06,6.916046807308273e-10,-8.495193636842643e-11,1.4260467058151412e-10
1687389618.611386,-7.894166738133878e-05,1.2734419320003543e-08,-9.452072740597419e-06,0.9999999968394357,-2.7655968701562438e-05,7.977968435304065e-07,2.7116463917758007e-06,6.918492624505202e-10,-8.515206545110544e-11,1.4600685019634142e-10
1687389618.621386,-7.89416673824817e-05,1.2734446350106108e-08,-9.45207781491906e-06,0.9999999968394357,-2.765596745914106e-05,7.97815796303373e-07,2.711678018973911e-06,6.916814191861791e-10,-8.405127833108151e-11,1.418624204443645e-10
1687389618.631386,-7.89416673836517e-05,1.2734473398973224e-08,-9.452082889302501e-06,0.9999999968394356,-2.765596622290956e-05,7.978347418465262e-07,2.7117096652186167e-06,6.907037132284998e-10,-8.34868240289248e-11,1.433431345290899e-10
1687389618.641386,-7.894166738479595e-05,1.273450048242953e-08,-9.452087963746256e-06,0.9999999968394355,-2.7655964989604224e-05,7.97853676865288e-07,2.7117413677791285e-06,6.908522515615485e-10,-8.48218971489965e-11,1.4364788770990356e-10
1687389618.651386,-7.89416673859358e-05,1.2734527461156935e-08,-9.452093038263993e-06,0.9999999968394356,-2.765596379439378e-05,7.978726757053923e-07,2.7117729554765122e-06,6.916240450270464e-10,-8.59319631554134e-11,1.4274027113215867e-10
1687389618.661386,-7.89416673871489e-05,1.273455450458483e-08,-9.45209811288803e-06,0.9999999968394355,-2.7655962563546528e-05,7.978915649643527e-07,2.711804610234564e-06,6.899821276867012e-10,-8.305570146219269e-11,1.4465005137957348e-10
1687389618.671386,-7.894166738832089e-05,1.273458152268307e-08,-9.452103187612765e-06,0.9999999968394354,-2.7655961313359972e-05,7.979105793623956e-07,2.711836208714955e-06,6.925454681532805e-10,-8.470562314557033e-11,1.4463356850508686e-10
1687389618.681386,-7.894166738942812e-05,1.2734608674736497e-08,-9.45210826230203e-06,0.9999999968394354,-2.765596006326984e-05,7.979295107200172e-07,2.711867891135233e-06,6.903032199034418e-10,-8.547943237875987e-11,1.4025836266111523e-10
1687389618.691386,-7.894166739057958e-05,1.2734635674870234e-08,-9.452113337186928e-06,0.9999999968394354,-2.7655958810409942e-05,7.979484808544787e-07,2.7118995160429833e-06,6.916646676316341e-10,-8.377335728541124e-11,1.4395977382577935e-10
1687389618.701386,-7.894166739171751e-05,1.2734662735665147e-08,-9.452118412102396e-06,0.9999999968394353,-2.7655957625608082e-05,7.979674168289958e-07,2.711931174928373e-06,6.914765000959007e-10,-8.518135169290824e-11,1.4425500754458156e-10
1687389618.711386,-7.894166739290432e-05,1.2734689790873619e-08,-9.452123487043953e-06,0.9999999968394352,-2.7655956383392083e-05,7.97986369460188e-07,2.711962847877208e-06,6.907195688028253e-10,-8.532098915720629e-11,1.4339177292310838e-10
1687389618.7213862,-7.894166739402396e-05,1.2734716793056908e-08,-9.452128562354214e-06,0.9999999968394353,-2.7655955154734005e-05,7.980053643298383e-07,2.711994399236438e-06,6.913626284994733e-10,-8.591075968406426e-11,1.4175132123763923e-10
1687389618.7313862,-7.894166739521199e-05,1.2734743764956415e-08,-9.452133637788166e-06,0.9999999968394352,-2.7655953932686764e-05,7.980243838711785e-07,2.712025989426396e-06,6.919776321461905e-10,-8.144507034373992e-11,1.447926106867319e-10
1687389618.7413862,-7.894166739633712e-05,1.2734770858645556e-08,-9.452138713304185e-06,0.9999999968394351,-2.7655952675492712e-05,7.9804332656784e-07,2.71205770075683e-06,6.908293209337609e-10,-8.495397014417173e-11,1.4190590346114657e-10
1687389618.7513862,-7.894166739752311e-05,1.2734798092918925e-08,-9.452143788675857e-06,0.9999999968394351,-2.7655951441396672e-05,7.980622180804533e-07,2.7120894822506726e-06,6.910565144337932e-10,-8.702916345547034e-11,1.4395678251839875e-10
