time,orientation_x,orientation_y,orientation_z,orientation_w,angular_velocity_x,angular_velocity_y,angular_velocity_z,linear_acceleration_x,linear_acceleration_y,linear_acceleration_z
1687192967.055536,-7.87658187415048e-05,-5.360090099221153e-09,2.5783336832474544e-05,0.9999999965655828,-1.4966534943436707e-05,-5.579685556148935e-05,-7.98733092904389e-06,-0.0005038540720691209,-0.0016613618110446,9.800063883111067
1687192967.065536,-7.876605066881138e-05,-5.304404864237903e-09,2.578348363751747e-05,0.9999999965655607,-1.4966256146352203e-05,-5.5625911793731145e-05,-7.852552874941536e-06,-0.0004944157510577435,-0.0016618330613289941,9.800065836802245
1687192967.075536,-7.876627943256274e-05,-5.2463073910709615e-09,2.5783658328494688e-05,0.9999999965655381,-1.4964953595496986e-05,-5.545752337185526e-05,-7.721227350051512e-06,-0.00048510240747118115,-0.0016621053371372405,9.800067467860426
1687192967.0855362,-7.876650520335838e-05,-5.186251109383088e-09,2.5783854187607196e-05,0.9999999965655153,-1.4962911300086128e-05,-5.529169401490709e-05,-7.592219516750538e-06,-0.0004758604114840033,-0.0016622293076200743,9.800068859214386
1687192967.0955362,-7.876672825909539e-05,-5.125954692296937e-09,2.578407192441461e-05,0.9999999965654921,-1.49571729093556e-05,-5.5109418245054086e-05,-7.433768859556551e-06,-0.00046665362244954403,-0.0016621037699219164,9.800068576706655
1687192967.1055362,-7.876694850649168e-05,-5.064916744658087e-09,2.5784308731659804e-05,0.9999999965654687,-1.4950718719001064e-05,-5.4929287997001866e-05,-7.278283708337826e-06,-0.00045779956675354454,-0.001661845992606457,9.800068117608166
1687192967.1155362,-7.876716595451364e-05,-5.002971112485261e-09,2.5784559233100877e-05,0.999999996565445,-1.4943808084265271e-05,-5.4751499006795925e-05,-7.1252534649351345e-06,-0.0004490279238808687,-0.0016614939503465423,9.800067505421653
1687192967.1255362,-7.876738070737007e-05,-4.940615377780246e-09,2.5784819778182067e-05,0.9999999965654214,-1.4936628511774415e-05,-5.457596916494385e-05,-6.973748968110418e-06,-0.0004403511641053841,-0.0016610443340337282,9.800066791837564
1687192967.1355362,-7.876758746060678e-05,-4.893974109083181e-09,2.578506541698037e-05,0.999999996565399,-1.493212813043795e-05,-5.4387295079816246e-05,-6.814119524689631e-06,-0.0004313127246219264,-0.0016607725226404429,9.80006661150037
1687192967.1455362,-7.87677865409962e-05,-4.869934764383876e-09,2.578526359707305e-05,0.999999996565378,-1.4932217702054902e-05,-5.418799226529848e-05,-6.650096958476294e-06,2.4151717253400435e-06,-0.001543955812418568,9.80000163827543
1687192967.1555362,-7.87679828937109e-05,-4.82327934149913e-09,2.5785405450096563e-05,0.9999999965653589,-1.4933694695527421e-05,-5.3995392987216656e-05,-6.482763575978329e-06,-0.00041333054313428527,-0.001661155610526623,9.800067041676158
1687192967.1655362,-7.876817719524272e-05,-4.774603112180535e-09,2.5785494374813606e-05,0.9999999965653412,-1.4937466383028942e-05,-5.3809671782178414e-05,-6.315273672300922e-06,-0.00040457761458955274,-0.0016617339126312211,9.800067770841503
1687192967.1755362,-7.876836934413561e-05,-4.732762811096886e-09,2.5785540548435034e-05,0.999999996565325,-1.4942721510301666e-05,-5.3624652044986927e-05,-6.147957724493664e-06,-0.0003959167937157115,-0.0016625836538242283,9.800068918807716
1687192967.1855361,-7.876855928767667e-05,-4.696209962593666e-09,2.5785553126004226e-05,0.9999999965653098,1.5006500132638754e-05,5.278037053413253e-05,5.961379470255776e-06,-1.6760105434243677e-06,-0.0015436686463460615,9.800001160635947
1687192967.1955361,-7.876874707497414e-05,-4.663273535628989e-09,2.5785536850797996e-05,0.9999999965652953,-1.4955983727243502e-05,-5.325793055326375e-05,-5.817080622299799e-06,-0.0003788975112763773,-0.0016649128833814524,9.80007253145074
1687192967.2055361,-7.876893271934031e-05,-4.632779097099391e-09,2.5785494975697197e-05,0.9999999965652817,-1.496360731671338e-05,-5.307734013799192e-05,-5.654557587519491e-06,-0.00037012556386157116,-0.0016664308892552517,9.800076003420932
1687192967.215536,-7.876911615932445e-05,-4.604501450736458e-09,2.5785432756505535e-05,0.999999996565269,-1.4971341458868799e-05,-5.288951687740979e-05,-5.505126093672554e-06,-0.0003618228705313241,-0.0016680089422513532,9.800079661775078
1687192967.225536,-7.876929745039163e-05,-4.57760556077016e-09,2.5785352223212776e-05,0.9999999965652567,-1.4979345004472351e-05,-5.270038482527693e-05,-5.3609086294119135e-06,-0.00035367067424905876,-0.0016696722884663247,9.80008342494246
1687192967.235536,-7.876947659454595e-05,-4.55209999566173e-09,2.5785257847142852e-05,0.9999999965652451,-1.4987582298914074e-05,-5.251320050620461e-05,-5.217553118724239e-06,-0.00034561824676436107,-0.001671358347251532,9.800087252863053
1687192967.245536,-7.876965361162892e-05,-4.527373380015816e-09,2.5785152963439534e-05,0.9999999965652338,-1.4995918681871149e-05,-5.2328028613330134e-05,-5.075308598285966e-06,-0.00033766712117218697,-0.0016730629353543392,9.800091097055931
1687192967.255536,-7.87698285192024e-05,-4.5029558277179445e-09,2.5785040167686788e-05,0.999999996565223,-1.5004253255784415e-05,-5.2144931680746625e-05,-4.934303451906007e-06,-0.0003298146530966573,-0.001674768280189345,9.80009492889231
1687192967.265536,-7.877000133649459e-05,-4.478500995311423e-09,2.5784921504616844e-05,0.9999999965652124,-1.5012509597874926e-05,-5.1963950559906744e-05,-4.794633250915528e-06,-0.0003220591866668019,-0.0016764611072568004,9.80009872636294
1687192967.275536,-7.877017306426159e-05,-4.477158407380014e-09,2.5784816625651303e-05,0.9999999965652017,-1.5020603547398937e-05,-5.1783843477427676e-05,-4.661610082433549e-06,-0.00031436187995547533,-0.0016782509913571332,9.800102575624816
1687192967.285536,-7.8770342649468e-05,-4.485703937069517e-09,2.5784738460007447e-05,0.9999999965651902,-1.502694856985246e-05,-5.160007347557164e-05,-4.532520034351256e-06,-0.0003068218797567589,-0.0016798055756187056,9.800106063085654
1687192967.295536,-7.877051002100669e-05,-4.489446409210342e-09,2.5784680650829338e-05,0.9999999965651786,1.4914528529896128e-05,5.0945816751977236e-05,4.440223880445817e-06,-1.5946323673566368e-06,-0.0015436139661211936,9.800000248333554
1687192967.305536,-7.877067530866576e-05,-4.488822477669457e-09,2.5784638399211074e-05,0.9999999965651666,-1.5036706548428445e-05,-5.124117283076771e-05,-4.28191901653911e-06,-0.0002921380776999735,-0.0016823826221028747,9.80011206019049
1687192967.315536,-7.877083774215479e-05,-4.4837929650294656e-09,2.5784609540997048e-05,0.9999999965651546,-1.5040523313238804e-05,-5.106589489437516e-05,-4.159848660395104e-06,-0.00028492069855933584,-0.0016834794416933805,9.800114721873332
1687192967.325536,-7.877097167233221e-05,-4.492674791844588e-09,2.5784590443657413e-05,0.9999999965651445,-1.505224192268266e-05,-5.088506528870732e-05,-4.0436688729916914e-06,-0.00027688488242171765,-0.001684703405260723,9.800119038348829
1687192967.3355362,-7.877109536677435e-05,-4.5234210738731095e-09,2.5784549881916906e-05,0.9999999965651358,-1.5070284542426343e-05,-5.070523952537394e-05,-3.929522999275054e-06,-0.0002691120574343421,-0.0016861794033531253,9.800123453248247
1687192967.3455362,-7.877121783287203e-05,-4.557553414736791e-09,2.5784494846496176e-05,0.9999999965651276,-1.508855003887192e-05,-5.052627928861036e-05,-3.815880782439778e-06,-0.0002618748420404787,-0.0016877264371402178,9.800127803330806
1687192967.3555362,-7.877133851363369e-05,-4.5926422077314e-09,2.578442841211084e-05,0.9999999965651197,-1.5106541091605347e-05,-5.0347269525031265e-05,-3.7014319048196902e-06,-0.0002546694268147455,-0.001689295485293904,9.800132179957037
1687192967.3655362,-7.877143818590195e-05,-4.64192833175817e-09,2.5784334503315616e-05,0.9999999965651143,-1.5125426081991524e-05,-5.014441355904299e-05,-3.565947792924935e-06,3.090712029713173e-06,-0.001544369792885306,9.800003582945044
1687192967.3755362,-7.877153181158768e-05,-4.688982061234609e-09,2.5784233313989814e-05,0.9999999965651096,-1.5146524332148262e-05,-4.995212092768501e-05,-3.433842063983785e-06,-0.00023927800501241547,-0.0016921082284244748,9.800140880312426
1687192967.3855362,-7.877162402333464e-05,-4.731744196950783e-09,2.5784133950087973e-05,0.999999996565105,-1.5167023580995621e-05,-4.976347862922065e-05,-3.3032919568347267e-06,-0.0002320988084546901,-0.001693299725382446,9.80014426558287
1687192967.3955362,-7.877171460308856e-05,-4.772156161010879e-09,2.57840361239855e-05,0.9999999965651003,-1.5187057053387123e-05,-4.957785732940628e-05,-3.174701817175322e-06,-0.0002249973090241332,-0.0016944212732793271,9.800147560460344
1687192967.4055362,-7.877180359269194e-05,-4.810544586300263e-09,2.5783939496888506e-05,0.9999999965650958,-1.5206642340565517e-05,-4.939520813427361e-05,-3.048150636767074e-06,-0.00021799355414076833,-0.0016954889192808092,9.800150752506674
1687192967.4155362,-7.877189103030457e-05,-4.8470327222814416e-09,2.5783843817842863e-05,0.9999999965650914,-1.522579212637655e-05,-4.921549650907139e-05,-2.9236264253107e-06,-0.0002110906288278898,-0.0016965079649045895,9.800153847179724
1687192967.4255362,-7.877197695072212e-05,-4.88171288197748e-09,2.57837489093218e-05,0.999999996565087,-1.5244519405550915e-05,-4.90386797077485e-05,-2.8010965428086383e-06,-0.0002042886484823906,-0.001697481678261823,9.800156849199603
1687192967.4355361,-7.877206138613584e-05,-4.9146652175992135e-09,2.578365464945514e-05,0.9999999965650828,-1.5262836480499745e-05,-4.8864710462899434e-05,-2.6805237196085353e-06,-0.00019758680998988742,-0.0016984125064364057,9.800159762512422
1687192967.4455361,-7.877214442181832e-05,-4.945815921814047e-09,2.5783559651799235e-05,0.9999999965650787,-1.5280740639668904e-05,-4.8693850264875274e-05,-2.563293475367342e-06,-0.00019102381424033902,-0.0016993311494386248,9.800162893808308
1687192967.4555361,-7.877222625353011e-05,-4.974664696851691e-09,2.578346112587778e-05,0.9999999965650748,-1.5298271483308976e-05,-4.852649835154699e-05,-2.4486945906960735e-06,-0.00018423527107314883,-0.0017003114042815522,9.800167831572935
1687192967.465536,-7.877230688905105e-05,-5.002641701793011e-09,2.578336105735147e-05,0.999999996565071,-1.5310499686954304e-05,-4.835154915632219e-05,-2.3249742629977114e-06,-0.00017734688437514326,-0.001701189806303693,9.800171583529142
1687192967.475536,-7.87723863424378e-05,-5.029744911912114e-09,2.578326194327879e-05,0.9999999965650672,-1.532037345180911e-05,-4.81752667718285e-05,-2.199175000187869e-06,-0.00017058299046834334,-0.0017019832365472785,9.800174802520498
1687192967.485536,-7.877246443189741e-05,-5.055318353811217e-09,2.5783163668860634e-05,0.9999999965650638,-1.532992237304843e-05,-4.800173089605019e-05,-2.075275890031524e-06,2.5570439143103915e-06,-0.0015442375990363632,9.800002107896287
1687192967.495536,-7.877254117147021e-05,-5.079461219327868e-09,2.5783066158048797e-05,0.9999999965650602,-1.533918479037853e-05,-4.783092552262963e-05,-1.9533028191921767e-06,-0.0001573503061522273,-0.0017035132928593173,9.800180923144469
1687192967.505536,-7.877261659339908e-05,-5.102226877857045e-09,2.578296934066548e-05,0.9999999965650568,-1.534817058048334e-05,-4.7662797588375396e-05,-1.8332016684734361e-06,-0.00015087906216776793,-0.0017041926222521183,9.800183849413616
1687192967.515536,-7.87726922315871e-05,-5.134787169163845e-09,2.578287799823263e-05,0.9999999965650532,-1.535801840872069e-05,-4.7497881322624495e-05,-1.7187541913020502e-06,-0.00014467077774416476,-0.00170485821021562,9.800186849178747
1687192967.525536,-7.877276901587867e-05,-5.190586031841609e-09,2.5782795093947253e-05,0.9999999965650491,-1.536680851707388e-05,-4.732386408296753e-05,-1.6133615534489305e-06,-0.00013845692685756348,-0.0017055613974355814,9.80018994805163
1687192967.535536,-7.877284442485862e-05,-5.239457882182777e-09,2.5782703265233197e-05,0.9999999965650456,-1.5375239364238555e-05,-4.715074935933264e-05,-1.5087881381347075e-06,-0.0001323553438972565,-0.001706257996134839,9.800192986340955
1687192967.545536,-7.877291900188522e-05,-5.266331350890325e-09,2.5782598664409463e-05,0.9999999965650425,-1.5383249599835685e-05,-4.698498405263581e-05,-1.4012243426493253e-06,-0.00012659210260918647,-0.0017068729167807129,9.800195779899079
1687192967.555536,-7.877299226852857e-05,-5.291697382479591e-09,2.5782488868624132e-05,0.9999999965650395,-1.5391265501120816e-05,-4.682209332913252e-05,-1.2949236948619978e-06,1.969806637353362e-06,-0.0015441638637772941,9.800001972129966
1687192967.565536,-7.877306439917223e-05,-5.316351287371569e-09,2.578237622374958e-05,0.9999999965650367,-1.53991332987833e-05,-4.6661667885813914e-05,-1.1902087268968825e-06,-0.00011510438741994712,-0.0017081769700190911,9.80020149954429
1687192967.575536,-7.87731353901062e-05,-5.339967706008333e-09,2.5782261842916227e-05,0.999999996565034,-1.540681148118545e-05,-4.6503702157709226e-05,-1.086978571575838e-06,-0.00010951477229984949,-0.0017088131639965707,9.800204262888785
1687192967.5855362,-7.877320522820715e-05,-5.362383026516602e-09,2.578214641442565e-05,0.9999999965650316,-1.541428666733499e-05,-4.6348184702946206e-05,-9.85203365127861e-07,-0.00010401247556207321,-0.0017094264346338712,9.800206957981624
1687192967.5955362,-7.877327391338693e-05,-5.3835251267307075e-09,2.578203044303167e-05,0.9999999965650292,-1.542155152990859e-05,-4.619509300294516e-05,-8.848574458784642e-07,-9.85941488329355e-05,-0.0017100151289653899,9.80020958134529
1687192967.6055362,-7.877334145128418e-05,-5.4033547907662674e-09,2.5781914302126738e-05,0.9999999965650269,-1.5428601420900646e-05,-4.604440041508559e-05,-7.859286696356523e-07,-9.325743608179175e-05,-0.0017105776753682132,9.800212130510415
1687192967.6155362,-7.877340787812533e-05,-5.422143741948961e-09,2.5781799063028638e-05,0.9999999965650247,1.4490516438652563e-05,4.629597554951205e-05,5.41125817674195e-07,-6.036658137195964e-07,-0.0015438499711553572,9.800000473683946
1687192967.6255362,-7.877347316450841e-05,-5.440276131153088e-09,2.5781687593958553e-05,0.9999999965650223,-1.544201936062847e-05,-4.5749876694733e-05,-5.898067451165229e-07,-8.315809318902893e-05,-0.001711648284516912,9.800217083147373
1687192967.6355362,-7.877353723776435e-05,-5.456574922454584e-09,2.5781578917404665e-05,0.9999999965650201,-1.5448277131141804e-05,-4.5605936672314704e-05,-4.936413633043701e-07,-7.84076276849602e-05,-0.001712135196781831,9.800219445966674
1687192967.6455362,-7.877352775669442e-05,-5.472239680654859e-09,2.5781479218179193e-05,0.9999999965650235,-1.5459734702464772e-05,-4.53715880621951e-05,-3.435759047525389e-07,-7.152633837130112e-05,-0.0017144310740933506,9.800223084534329
1687192967.6555362,-7.877336320625659e-05,-5.602924503528686e-09,2.5781264784620044e-05,0.9999999965650419,-1.5525953390759194e-05,-4.5004785285411206e-05,-1.493374701967057e-07,-5.99718894516626e-05,-0.0017199351679150377,9.800235393139985
1687192967.6655362,-7.877313992035434e-05,-5.8326571869574114e-09,2.5780854609470987e-05,0.9999999965650701,-1.562448591312885e-05,-4.4569345124004367e-05,4.402784774357978e-08,-4.801353819890305e-05,-0.0017284963154526357,9.800249989523515
1687192967.6755362,-7.877288501218658e-05,-6.128092912508362e-09,2.578025496679362e-05,0.9999999965651055,-1.5740866059562358e-05,-4.409146075348342e-05,2.523283572493638e-07,-3.5539231036011984e-05,-0.0017391335668456623,9.800267290392291
1687192967.6855361,-7.877260338385797e-05,-6.4788193291973e-09,2.5779484573557676e-05,0.9999999965651477,-1.5872098296821305e-05,-4.358128971076561e-05,4.768712312995817e-07,-2.2519287871660184e-05,-0.0017514770809223563,9.800287315817094
1687192967.6955361,-7.877229943409792e-05,-6.875701447128869e-09,2.577855968146829e-05,0.9999999965651953,-1.601579843868035e-05,-4.3046344027874054e-05,7.107094567204991e-07,-9.147113392723277e-06,-0.0017654490917165617,9.800310752711091
1687192967.7055361,-7.877198137302281e-05,-7.334736526810434e-09,2.5777496590577416e-05,0.999999996565248,-1.617072020859674e-05,-4.2506245784279176e-05,9.537032747935014e-07,5.782486286280552e-06,-0.0017821797680794033,9.800344637015757
1687192967.715536,-7.877166623372185e-05,-7.925926622603882e-09,2.5776449040792063e-05,0.9999999965652996,-1.632263324676247e-05,-4.196531453232545e-05,1.2123894847202988e-06,2.0406762567365753e-05,-0.0017985716101825812,9.800377460230845
1687192967.725536,-7.877141283496735e-05,-8.421041154957092e-09,2.5775565404095467e-05,0.9999999965653424,-1.6448536895038755e-05,-4.150421604639133e-05,1.438001545098619e-06,3.0476946685756145e-05,-0.0018114052019019386,9.800401730491496
1687192967.735536,-7.877118071030866e-05,-8.813857793073403e-09,2.5774846187223265e-05,0.9999999965653792,-1.6551274392913862e-05,-4.108345783113481e-05,1.6478926278780767e-06,3.9552728225641725e-05,-0.0018220502084754615,9.800421594123831
1687192967.745536,-7.87705524897848e-05,-9.247587326620939e-09,2.5774284134385353e-05,0.9999999965654431,-1.6698829031610022e-05,-4.032109716983019e-05,2.0238123865465097e-06,5.616192259807694e-05,-0.0018342104433008454,9.800449799047122
1687192967.755536,-7.876769585720797e-05,-8.490982347245351e-09,2.5774544189121795e-05,0.9999999965656614,-1.685889135053331e-05,-3.806439729661816e-05,3.2623145279967612e-06,8.37546204915667e-05,-0.0018171127702082531,9.800466254459666
1687192967.765536,-7.876101437508584e-05,-5.3738217983738135e-09,2.57764484563391e-05,0.9999999965661387,-1.699861654020351e-05,-3.430067683207507e-05,5.731055570982213e-06,0.00013191895308097324,-0.0017426647247360298,9.800358625762957
1687192967.775536,-7.875789766924257e-05,1.4052798593333213e-08,2.577231588043317e-05,0.9999999965664906,-2.2260663228392785e-05,-4.9967421738100766e-05,-2.700569429117999e-06,0.0010404655607258778,-0.0015987177039655425,9.798182974375015
1687192967.785536,-7.876559529905949e-05,1.1330363638291315e-08,2.5773334943686585e-05,0.9999999965658581,1.402175819486524e-05,4.404031111043224e-05,-6.801064988142362e-07,5.2571468523365296e-05,-0.0013542120799242044,9.799760174575745
1687192967.795536,-7.876224722955144e-05,6.809257259909295e-09,2.5771790200469448e-05,0.9999999965661616,1.3667062117387632e-05,4.001306843937831e-05,-3.6298280858799157e-06,-7.075382246476237e-05,-0.0013048974830386106,9.799651377271092
1687192967.805536,-7.875580343482793e-05,-6.98107763308176e-09,2.5779699289640152e-05,0.9999999965664654,-2.5429718314090805e-05,-5.3336197874420414e-05,-6.145260782756592e-06,-0.00021805820934047977,-0.0013976099607268073,9.800410706490828
1687192967.815536,-7.877278558307714e-05,-3.461440749698364e-09,2.5780724308395173e-05,0.9999999965651013,-1.6106224794002506e-05,-4.4984077227564074e-05,1.1872232299794786e-08,-7.693093135728038e-05,-0.0016969267114163048,9.800116034335081
1687192967.825536,-7.876967106378414e-05,-5.4987280376680054e-09,2.5779990816337656e-05,0.9999999965653654,-1.5995977062874518e-05,-3.951010157171237e-05,2.6881869083640767e-06,7.372665883064455e-05,-0.0017573703525702606,9.80034908269315
1687192967.8355362,-7.87500711666341e-05,1.9411368308184642e-08,2.5782949473609393e-05,0.9999999965668328,5.341914675375976e-06,5.1938677193246354e-05,6.2562696565659965e-06,0.0002801074452265911,-0.0014680783200143428,9.80115208119794
1687192967.8455362,-7.876560101419953e-05,1.4999425197320392e-08,2.5780576222310237e-05,0.9999999965656711,1.3301506727536093e-05,4.3497266912038065e-05,-1.0282489541148863e-06,8.778973551159137e-05,-0.0014187180997029787,9.799875315034498
1687192967.8555362,-7.875856163368045e-05,6.384823364772366e-09,2.5775810745148886e-05,0.9999999965663484,1.3276958128729631e-05,3.455042831486518e-05,-6.161383220063959e-06,-0.0001223873419062607,-0.001409133904821506,9.799668033106817
1687192967.8655362,-7.877066122049193e-05,-5.233522524016011e-09,2.577850687464429e-05,0.9999999965653258,-1.7849912617933133e-05,-4.705024247091121e-05,-8.7642527452839e-07,-0.00019961220668683114,-0.0017809176911079338,9.799579987356317
1687192967.8755362,-7.877175247061942e-05,-4.934632122343879e-09,2.5779783188648827e-05,0.999999996565207,-1.575878819336392e-05,-4.151737574994521e-05,1.7718458884013546e-06,3.572250169466359e-05,-0.0015554353516368526,9.800084212349848
1687192967.8855362,-7.874261374667822e-05,1.716288284795187e-08,2.578195312013511e-05,0.9999999965674456,-2.164039494427202e-06,7.526442882438284e-05,2.0708142868443783e-05,0.0010525252033370164,-0.001508630329677794,9.801689669140528
1687192967.8955362,-7.87654153635385e-05,1.4733337772844154e-08,2.5779316986272874e-05,0.9999999965657179,1.3140518019090134e-05,4.4535441472845924e-05,-5.770862841067254e-07,0.00011682389382734801,-0.0014302865735700318,9.799750644941653
1687192967.9055362,-7.876204517912677e-05,8.181636972568691e-09,2.5775961688609768e-05,0.99999999656607,1.3458432531915695e-05,3.805114747604203e-05,-4.671757417846963e-06,-8.319868292867234e-05,-0.0013696944476560466,9.79972820112298
1687192967.9155362,-7.876796193016168e-05,-9.855824157945169e-09,2.5774223366448765e-05,0.9999999965656489,-1.9711538313214217e-05,-4.683504472480749e-05,-1.4632144806848622e-06,-0.00043816151951780856,-0.0026616755179435124,9.799057357532169
1687192967.9255362,-7.877220947356607e-05,-5.776943912444012e-09,2.5778195018771984e-05,0.9999999965652118,-1.5815631828841996e-05,-4.1517930971725155e-05,1.8202848935962569e-06,-2.7001977775385524e-05,-0.0017403072129676036,9.800305675369819
1687192967.9355361,-7.874573017645643e-05,1.672891519495715e-08,2.5779637988540915e-05,0.9999999965672599,-1.0863812055379362e-06,7.661483852795563e-05,2.2141271072060154e-05,0.0007869011005066207,-0.0013820602547206422,9.801113277123614
1687192967.9455361,-7.876568690583315e-05,1.4581441036951228e-08,2.577662981847052e-05,0.999999996565766,1.3366632579630839e-05,4.417116822964914e-05,-5.286709235523881e-07,0.00013844558650211533,-0.0014060634691230394,9.799755862429441
1687192967.9555361,-7.876043312022257e-05,6.993742148696015e-09,2.5773116319003568e-05,0.9999999965662705,1.3209019099104776e-05,3.679703139764634e-05,-5.064199633556348e-06,-4.64367473410728e-05,-0.0015513534177241744,9.79998220330353
1687192967.965536,-7.876659133209024e-05,-3.5384200605108847e-09,2.57829370614831e-05,0.9999999965655322,-1.9761605472531568e-05,-4.9142457976750475e-05,-2.958707119140541e-06,-0.001072600030956329,-0.0016974179094660377,9.798630303032319
1687192967.975536,-7.877244233965305e-05,-3.5040689584778303e-09,2.5782394183751295e-05,0.9999999965650852,-1.568628556489288e-05,-4.300527707240332e-05,1.0079914801111478e-06,4.655515838482113e-06,-0.001708886311635968,9.80022505126097
1687192967.985536,-7.873705342959337e-05,2.349981817889322e-08,2.578067876470253e-05,0.9999999965679163,2.4898081248226165e-06,5.422526320042497e-05,1.656461325468703e-05,0.0006309935655618064,-0.0006983960575758753,9.801737686784334
1687192967.995536,-7.87656258920842e-05,1.2730127208907719e-08,2.577491149586939e-05,0.9999999965658151,1.3369390181228658e-05,4.507403072953345e-05,1.0234821602384171e-07,8.341817424482767e-05,-0.0013672943120745774,9.799628996956393
1687192968.005536,-7.87607162787678e-05,6.501548327339668e-09,2.5772623026275817e-05,0.9999999965662607,1.3319465578356217e-05,3.703509351289741e-05,-4.949506198295484e-06,-0.00010973896730850612,-0.0013553918463040382,9.799690939587647
1687192968.015536,-7.876685684161339e-05,-3.5748463817296387e-09,2.578272304273215e-05,0.9999999965655167,-1.9665432029496307e-05,-4.896260425031745e-05,-2.8233347055588466e-06,8.25478915700487e-05,-0.001986206984702506,9.798780157463717
1687192968.025536,-7.877213898423212e-05,-3.55221742053639e-09,2.5782255312019866e-05,0.9999999965651127,-1.571419316184358e-05,-4.2500823322425e-05,1.2659869116182943e-06,1.28964171091732e-05,-0.0017139597756756345,9.800234492180154
1687192968.035536,-7.873947119566391e-05,1.908289927298762e-08,2.578376006012937e-05,0.9999999965676466,-4.001549572087125e-06,7.497287819251547e-05,2.0986611091726767e-05,0.001104820281574998,-0.0015141032802279508,9.801775242785956
1687192968.045536,-7.876524411227976e-05,1.51944212082335e-08,2.5780876109547273e-05,0.9999999965656914,1.2879442770117774e-05,4.426486997615902e-05,-7.455689129087721e-07,0.00012319393952157,-0.0014522204865739501,9.799748844645668
1687192968.055536,-7.875950478538548e-05,6.851751524489939e-09,2.5776130578336333e-05,0.9999999965662657,1.3254689609306397e-05,3.4839026801939245e-05,-6.094950229533143e-06,-0.00012102018495311122,-0.0014143177298491046,9.799685188009079
1687192968.065536,-7.877099431943676e-05,-5.181235288971762e-09,2.5778631920736973e-05,0.9999999965652964,-1.7779133965865064e-05,-4.659923616378845e-05,-5.657913064770288e-07,-0.00018175471773369426,-0.0017824595253614554,9.79959235047134
1687192968.075536,-7.877029561590696e-05,-5.231382508585186e-09,2.5779867776078962e-05,0.9999999965653195,-1.5817471754718834e-05,-3.9390415195616305e-05,2.9611620780026135e-06,4.981430083942676e-05,-0.0017518465612471614,9.800330706306267
1687192968.0855362,-7.875284390376004e-05,1.4103715479115765e-08,2.5772686702660525e-05,0.999999996566879,6.821600195212226e-06,5.318644086575866e-05,5.710614749318279e-06,0.0003735831412416002,-0.0007331708528367869,9.801776894485169
1687192968.0955362,-7.876533621248907e-05,1.1298903001787037e-08,2.577350880351413e-05,0.9999999965658739,1.3704542706336588e-05,4.312348309105917e-05,-1.275576007490714e-06,3.512880417608579e-05,-0.0013691103719453213,9.799743707479799
1687192968.1055362,-7.871541674352976e-05,2.4993727384601793e-09,2.5774615928154966e-05,0.9999999965697761,3.910249048165298e-05,1.859115426334945e-06,-1.1891751797060702e-05,-0.00025562084744677527,-0.0020176987649870373,9.798401917137852
1687192968.1155362,-7.876995331376903e-05,-5.832948282847833e-09,2.5774555709211538e-05,0.9999999965654833,-1.832358233693084e-05,-4.590503549332294e-05,-2.631622369145591e-07,-0.0002616780728195947,-0.0017938264012303216,9.799861862155874
1687192968.1255362,-7.877009679592347e-05,-6.04644204727684e-09,2.5776300399271523e-05,0.9999999965654272,-1.6018902583440528e-05,-3.905036051747994e-05,3.130231428018054e-06,5.99908208004765e-05,-0.001783851033558842,9.800380598627674
1687192968.1355362,-7.875904320978735e-05,1.3993272458962545e-08,2.577130073690642e-05,0.9999999965664265,9.667402592236906e-06,5.218684806948556e-05,5.723935153205985e-06,0.00044266294166398005,-0.0014664409070999777,9.801492635584403
1687192968.1455362,-7.87651934511771e-05,1.0201629276467976e-08,2.577253019964941e-05,0.9999999965659105,1.3962194924938205e-05,4.1674981069408365e-05,-2.246724297072431e-06,-7.160310465779948e-06,-0.0013425736873469635,9.799740334276718
1687192968.1555362,-7.875686106109037e-05,-6.396050877424017e-09,2.5780415213816384e-05,0.9999999965663636,-2.5119040013706024e-05,-5.319138076039496e-05,-5.389157803909308e-06,-0.00018039388895685248,-0.0013800690716247812,9.800483008095796
1687192968.1655362,-7.877267113443715e-05,-2.9642886219108306e-09,2.578134983434941e-05,0.9999999965650941,-1.5978357126143672e-05,-4.401450559625548e-05,5.893485257705052e-07,-3.7105812264141816e-05,-0.0016909590343710424,9.80012512666118
1687192968.1755362,-7.873937414804e-05,2.0967985019975943e-08,2.5779154522335104e-05,0.9999999965677728,3.780391580310915e-06,5.0975331735310566e-05,1.583519159042766e-05,0.0006439685621041134,-0.000666964816073505,9.801570892497615
1687192968.1855361,-7.876575203969089e-05,1.1460382470976748e-08,2.5774134033343222e-05,0.9999999965658251,1.3432276741057482e-05,4.467933275860504e-05,-8.372580637748414e-08,6.334239369703515e-05,-0.0013552782207322213,9.7996342432002
1687192968.1955361,-7.874053413728422e-05,-1.1487097189226767e-09,2.5772498654163808e-05,0.9999999965678533,2.8998155563170868e-05,1.5116648455300758e-05,-1.3320319023191549e-05,-0.0002858059479749849,-0.0014284759970445097,9.798484230188851
1687192968.2055361,-7.877269966150256e-05,-5.091392489987193e-09,2.5777461137703883e-05,0.9999999965651921,-1.663997317837939e-05,-4.481752001796207e-05,4.3560413617445525e-07,-0.00023053464425871868,-0.001712598492393674,9.799962563903433
1687192968.215536,-7.876331847124382e-05,-3.811307663073883e-09,2.577821311018539e-05,0.9999999965659118,-1.5036419914248877e-05,-3.285773868439969e-05,6.156981649136334e-06,0.00015810941452152783,-0.001741799771429819,9.800294197232786
1687192968.225536,-7.875149666187869e-05,5.885712893069163e-09,2.5774056655866865e-05,0.9999999965669499,4.261858640271901e-05,-5.362435104747778e-07,-5.398783404157461e-07,-3.251503283260238e-05,-0.003054779302221115,9.79864976196026
1687192968.235536,-7.87324684651806e-05,5.824739889412941e-09,2.5773956627119363e-05,0.9999999965684507,4.4355386989502785e-05,-2.904663933607236e-07,-4.850698499656446e-07,-9.374623229234068e-05,-0.0007798582046196096,9.79240932495483
1687192968.245536,-7.877393532895114e-05,6.0495495844776455e-09,2.577416106137647e-05,0.9999999965651799,-8.783340120757293e-05,5.921145672498546e-07,6.781023682649621e-07,0.00010098729617430524,-0.001078855840200155,9.80849457264471
1687192968.255536,-7.875328192785832e-05,5.845492303251317e-09,2.57738028408687e-05,0.9999999965668159,4.328258688931841e-05,-3.611781534612749e-07,-3.574979108217908e-07,-2.2931857929830613e-05,-0.0027927184271680674,9.799014197471712
1687192968.265536,-7.873205426402024e-05,5.750782633483823e-09,2.577343880329894e-05,0.9999999965684968,4.4581299907109826e-05,-1.95295831244365e-07,-4.224425307249177e-07,-7.722591152158393e-05,-0.0007466563705899103,9.792447559032833
1687192968.275536,-7.877359927002087e-05,6.068269185263437e-09,2.5773648534914226e-05,0.9999999965652195,-8.817981021593904e-05,4.966084885519415e-07,7.237441607580193e-07,0.0001014078827015639,-0.001108779576030558,9.808567374323797
1687192968.285536,-7.875278621178791e-05,5.898662529261337e-09,2.5773367087017147e-05,0.9999999965668661,4.36188556618137e-05,-3.665126867798683e-07,-3.502644748097759e-07,-2.3751145520278868e-05,-0.0027933093291755678,9.799002676442083
1687192968.295536,-7.873140426071577e-05,5.808158349877995e-09,2.5773058158996427e-05,0.9999999965685579,4.4898846770017104e-05,-2.035526285274166e-07,-4.1806309830276906e-07,-7.973858341612712e-05,-0.0006975697939965973,9.792371361442093
1687192968.305536,-7.877328687581184e-05,6.132781109482956e-09,2.5773328021890875e-05,0.9999999965652525,-8.849418747219788e-05,4.771082634049536e-07,7.53083595802086e-07,0.00010357993137333447,-0.0011528850001198173,9.808646349959233
1687192968.315536,-7.875230636593401e-05,5.924590457399654e-09,2.577309310075588e-05,0.999999996566911,4.395656163143685e-05,-3.87181721772553e-07,-3.6206294840289964e-07,-2.4415237776990787e-05,-0.002797118587594242,9.798993399699839
1687192968.325536,-7.873075786892835e-05,5.777219559213158e-09,2.577282864580216e-05,0.9999999965686145,4.519887539278023e-05,-1.9632730459259097e-07,-4.2733255668279464e-07,-8.080658449909779e-05,-0.0006511175420357597,9.792306058796484
1687192968.3355362,-7.877289373882857e-05,6.029493935488839e-09,2.5773158118054015e-05,0.9999999965652877,-8.879737457911904e-05,5.4299272861549e-07,7.639963752840791e-07,1.0121044460974017e-07,-0.001548434612237063,9.800005566392379
1687192968.3455362,-7.875170180883612e-05,5.844573616946161e-09,2.5772925379760602e-05,0.9999999965669629,4.422846442211161e-05,-3.7045186747998534e-07,-3.711933799304862e-07,-2.4808756651334386e-05,-0.002803511570788056,9.798987773966145
1687192968.3555362,-7.872999530859434e-05,5.749938559981282e-09,2.5772651865875484e-05,0.9999999965686791,4.542778025156307e-05,-1.921767858560111e-07,-4.3843944961329057e-07,-8.206120854987159e-05,-0.0006081882327427798,9.792244920472854
1687192968.3655362,-7.877232740669176e-05,6.0691757924580735e-09,2.5772979984316894e-05,0.9999999965653371,-8.913855206247711e-05,5.71082825012673e-07,7.808133224787396e-07,0.00010672683368392072,-0.0012278346479430813,9.808788430916742
1687192968.3755362,-7.875102318619829e-05,5.8786701250079355e-09,2.5772738482547323e-05,0.9999999965670212,4.445545104490616e-05,-3.9098617443198725e-07,-3.795302031570542e-07,-2.5040003919284016e-05,-0.002810805569083365,9.798981533738665
1687192968.3855362,-7.872922070005407e-05,5.776080682310378e-09,2.5772459816944062e-05,0.999999996568745,4.563332718777117e-05,-2.0799352386047747e-07,-4.4535905449149804e-07,-8.312968415694187e-05,-0.0005669931699829532,9.792185041088787
1687192968.3955362,-7.877177572698149e-05,6.112044948656508e-09,2.5772794666942347e-05,0.9999999965653853,-8.947203477057707e-05,5.903490164394858e-07,7.963755527106129e-07,0.00010800535947547415,-0.001261342323649638,9.808853815830352
1687192968.4055362,-7.875036790485182e-05,5.911614073635318e-09,2.5772550680313652e-05,0.9999999965670776,4.467426325350279e-05,-4.0941180179323686e-07,-3.8606062219107595e-07,-2.525844962253031e-05,-0.00281787396280886,9.798975490944663
1687192968.4155362,-7.872847345602942e-05,5.801455589260207e-09,2.577227073603927e-05,0.9999999965688089,4.5831579659137776e-05,-2.222621781577645e-07,-4.509480378893926e-07,-8.41284504534941e-05,-0.0005272666328575315,9.792127293755087
1687192968.4255362,-7.877125615519232e-05,6.143388457287418e-09,2.577264390469519e-05,0.99999999656543,-8.98072045814527e-05,6.015771635800424e-07,8.368457186663973e-07,0.0001102018121612625,-0.0012928884549146741,9.808917935980594
1687192968.4355361,-7.87497638536353e-05,5.9236716575647174e-09,2.577241788849319e-05,0.9999999965671286,4.489649210373721e-05,-4.259765969455538e-07,-4.0513982105974714e-07,-2.5477605351568325e-05,-0.002825191273995666,9.798969407061692
1687192968.4455361,-7.872779232559194e-05,5.798891732016431e-09,2.5772151509325115e-05,0.9999999965688656,4.603535939315428e-05,-2.3192688338895897e-07,-4.737728924999355e-07,-8.616105977300396e-05,-0.0004935427033355023,9.792067930561934
1687192968.4555361,-7.877081403468538e-05,6.149139851277424e-09,2.5772556795434767e-05,0.999999996565467,-9.014951675596737e-05,6.101543984570918e-07,8.908944853428905e-07,0.00011158216390656699,-0.001317627540388801,9.808982509306189
1687192968.465536,-7.874921435314831e-05,5.917742298419215e-09,2.577235135898916e-05,0.9999999965671736,4.512335504890812e-05,-4.4380684874520117e-07,-4.373190793070951e-07,-2.58843036769753e-05,-0.0028318540894539898,9.798964037345211
1687192968.475536,-7.872715964219255e-05,5.790635256011055e-09,2.5772096202153533e-05,0.9999999965689168,4.6238998627799574e-05,-2.47469716090822e-07,-5.057956149998976e-07,-8.983215859406976e-05,-0.0004639389623689587,9.792008933585063
1687192968.485536,-7.877042901633154e-05,6.176465710725823e-09,2.577253646266174e-05,0.999999996565498,-9.05045140222477e-05,6.454836909093282e-07,9.480584225994406e-07,-1.3124443829065608e-07,-0.0015462167070910977,9.800005802820923
1687192968.495536,-7.874873188216806e-05,5.945871614807878e-09,2.577227852642714e-05,0.9999999965672135,4.5362916223473586e-05,-4.7031566211656675e-07,-4.56226667977493e-07,-2.5930771316166052e-05,-0.002838789205332971,9.798958709986755
1687192968.505536,-7.872658147352068e-05,5.8130305348954995e-09,2.577198252264654e-05,0.9999999965689652,4.6447088737354254e-05,-2.6643055459044066e-07,-5.156271903073074e-07,-9.151276876936307e-05,-0.00044006074998848574,9.79194979701674
1687192968.515536,-7.87700800823195e-05,6.215854193954854e-09,2.5772409890379877e-05,0.9999999965655288,-9.084176801899983e-05,5.885201066659294e-07,9.968790913216764e-07,0.00011800639438735307,-0.001354639873889473,9.80910796008264
1687192968.525536,-7.874827087283324e-05,5.974448858939747e-09,2.5772141452939287e-05,0.9999999965672532,4.559522057490482e-05,-4.881605647109841e-07,-4.6073957709812626e-07,-2.610044643744145e-05,-0.002845052279735803,9.798953909893537
1687192968.535536,-7.87260261539894e-05,5.829972900303226e-09,2.577184475226428e-05,0.9999999965690125,4.664752264142928e-05,-2.7753115570925545e-07,-5.207447050932915e-07,-9.394966936302824e-05,-0.0004179601356205029,9.791898398178905
1687192968.545536,-7.876973535434942e-05,6.1947862189405326e-09,2.5772296602340477e-05,0.9999999965655587,-9.114050679892542e-05,5.52162074164549e-07,1.013538440926743e-06,0.00011988454953766561,-0.0013697585107798683,9.80916099870842
1687192968.555536,-7.874780964595106e-05,5.906977225714171e-09,2.5772041393727594e-05,0.9999999965672923,4.5809623535322186e-05,-4.7389540292151247e-07,-4.6949698207208084e-07,-2.61968367256314e-05,-0.002851462120985678,9.798950115427472
1687192968.565536,-7.872546902641242e-05,5.738819592135736e-09,2.5771750906222864e-05,0.9999999965690587,4.682784598154914e-05,-2.4416444910726844e-07,-5.320433252289564e-07,-9.405454653601162e-05,-0.00039775919937361064,9.791855209708038
1687192968.575536,-7.876936534923355e-05,6.062217606030304e-09,2.5772214532707893e-05,0.9999999965655901,-9.141903345006184e-05,6.020416391208964e-07,1.0045668373782986e-06,0.00012050215696370703,-0.001383212067491326,9.809208200192213
1687192968.5855362,-7.874733189931273e-05,5.829051663807176e-09,2.577194507514846e-05,0.9999999965673324,4.599983091906185e-05,-4.504949984489385e-07,-4.793381246227335e-07,-2.664459316847411e-05,-0.0028582483563476136,9.798946800712876
1687192968.5955362,-7.872490192083405e-05,5.708087004541595e-09,2.5771638020702186e-05,0.9999999965691063,4.698683242490322e-05,-2.3448654976646125e-07,-5.40580543094107e-07,-9.482980638665462e-05,-0.0003785654765977389,9.791814167885377
1687192968.6055362,-7.876895386593859e-05,6.077734112644249e-09,2.5772093101352216e-05,0.9999999965656255,-9.169803215863112e-05,6.192586732242948e-07,1.0116040495277252e-06,0.00012132137233508923,-0.0013950044799153163,9.80925274378474
1687192968.6155362,-7.874683810281509e-05,5.846270090133916e-09,2.5771816327629972e-05,0.9999999965673746,4.6168859854606315e-05,-4.6059718534097326e-07,-4.847683379463744e-07,-2.6803984505270836e-05,-0.002865243804440425,9.798943529105596
1687192968.6255362,-7.872434040292941e-05,5.721847639169346e-09,2.5771505665332013e-05,0.9999999965691538,4.713330620174708e-05,-2.425054541592493e-07,-5.449933698076814e-07,-9.568553629096933e-05,-0.0003601397626754241,9.791774322125379
1687192968.6355362,-7.876855548776477e-05,6.1002679566002125e-09,2.5771964859574603e-05,0.9999999965656603,-9.196891588738464e-05,6.292397318238845e-07,1.0205359038236122e-06,0.00012230812445380445,-0.0014063547471103012,9.809295344649122
1687192968.6455362,-7.87463630405308e-05,5.863865922728792e-09,2.577168609693755e-05,0.9999999965674153,4.633128164544617e-05,-4.7007852250567573e-07,-4.893259879774592e-07,-2.6937194488866272e-05,-0.002871973656989122,9.798940354767753
1687192968.6555362,-7.872380047208004e-05,5.735663301375991e-09,2.5771374050885424e-05,0.9999999965691999,4.727411816741369e-05,-2.4995850224628686e-07,-5.487847968497769e-07,-9.650199960773775e-05,-0.0003423947981825966,9.791736021079037
1687192968.6655362,-7.87681724555471e-05,6.122160008821897e-09,2.577183838664467e-05,0.9999999965656938,-9.222936058902088e-05,6.384614027316848e-07,1.0293267752474747e-06,0.0001232503969806389,-0.0014172737755961877,9.809336298664197
1687192968.6755362,-7.874590632320829e-05,5.881100866474149e-09,2.5771558342271964e-05,0.9999999965674545,4.6487424995826425e-05,-4.791171613249183e-07,-4.935196741251928e-07,-2.7066433367909817e-05,-0.0028784451482837025,9.798937302760201
1687192968.6855361,-7.872328143186903e-05,5.7491849677641505e-09,2.5771245614641294e-05,0.9999999965692439,4.7409484389196064e-05,-2.57090290507807e-07,-5.523073515231205e-07,-2.1243432505791815e-07,-0.001541690096324469,9.799997573622463
1687192968.6955361,-7.876780425284061e-05,6.143394248601026e-09,2.5771715256854475e-05,0.9999999965657258,-9.247972179243866e-05,6.472729236933244e-07,1.037921957961827e-06,0.00012415889674882727,-0.0014277686606963005,9.809375665672388
1687192968.7055361,-7.874546725679704e-05,5.897721767556354e-09,2.577143456817507e-05,0.9999999965674924,4.663752486595633e-05,-4.878292509076601e-07,-4.975632188949292e-07,-2.3481610486222473e-07,-0.0015431719939887093,9.79999713714373
1687192968.715536,-7.872278245376282e-05,5.7622219661847004e-09,2.5771121356864127e-05,0.9999999965692864,4.7539610728272906e-05,-2.6398847435502215e-07,-5.557440647718893e-07,-9.805509269665792e-05,-0.00030895902092126985,9.79166380296956
1687192968.725536,-7.876745021713422e-05,6.1639523738132e-09,2.5771596140712516e-05,0.9999999965657569,-9.272041174716498e-05,6.558700349963709e-07,1.0462926562004542e-06,0.00012503975939152147,-0.0014378659614327344,9.809413518038015
1687192968.735536,-7.874504508780918e-05,5.913920734287371e-09,2.577131455083028e-05,0.9999999965675286,4.678177221376754e-05,-4.962674438734972e-07,-5.014348141579822e-07,-2.7310371617061025e-05,-0.0028906381147702402,9.798931542055804
1687192968.745536,-7.87223026410198e-05,5.774970847643668e-09,2.577100075397102e-05,0.9999999965693273,4.7664720274338474e-05,-2.7068635507978056e-07,-5.590150398760954e-07,-9.879843097170228e-05,-0.0002931861923261886,9.791629762215063
1687192968.755536,-7.876710976359116e-05,6.183948637929049e-09,2.5771480472043016e-05,0.9999999965657868,-9.295188699405298e-05,6.641522342962993e-07,1.054483960723201e-06,0.0001258920071757087,-0.0014475841856763656,9.809449925713523
1687192968.765536,-7.874463907533e-05,5.931687978004952e-09,2.5771183528125976e-05,0.999999996567564,4.692027084985562e-05,-5.023185137607681e-07,-5.025674483607801e-07,-2.4357796148221128e-05,-0.002896974684141594,9.798928636392985
1687192968.775536,-7.872183929751677e-05,5.796999038186894e-09,2.5770834561658993e-05,0.999999996569368,4.690318059008735e-05,-4.125890155171702e-07,-8.806167777132909e-07,-0.00010828603702352562,-0.0002812511516866105,9.791619849143922
1687192968.785536,-7.876677448732296e-05,6.21302986177046e-09,2.5771245228165554e-05,0.9999999965658192,-9.316967418568939e-05,6.570068645507185e-07,9.929554625022425e-07,0.00012230059080142196,-0.0014600203551667634,9.809485646051751
1687192968.795536,-7.874423679057158e-05,5.966528566793078e-09,2.5770923789830756e-05,0.9999999965676023,4.705275642127532e-05,-4.95441034820319e-07,-4.807350601145851e-07,-1.4237760282488497e-05,-0.002888563790411638,9.798868288340115
1687192968.805536,-7.872138010662624e-05,5.833247909296646e-09,2.577057810828244e-05,0.9999999965694109,4.42148380475487e-05,-1.2708952675441626e-06,-1.0237326706864494e-06,-0.00010402567393323385,-0.00027934706442677435,9.79165583523342
1687192968.815536,-7.876644474611614e-05,6.240303837119243e-09,2.5771011115349375e-05,0.9999999965658511,-9.338364606274551e-05,6.185012135039399e-07,1.0220803569028831e-06,0.00012354685697819998,-0.001474394635510449,9.809520908086443
1687192968.825536,-7.874384600625133e-05,5.9899050015449e-09,2.5770752274720658e-05,0.9999999965676375,4.7179939536857355e-05,-4.986582786809021e-07,-4.7644125312121353e-07,-3.068868710371629e-05,-0.002875197894467668,9.798793602542153
1687192968.8355362,-7.872093630199251e-05,5.8469036003836026e-09,2.5770468564825102e-05,0.9999999965694486,4.0665367207005516e-05,-1.6925233247929874e-06,-8.324725443040465e-07,-9.480008543029348e-05,-0.0002821460149517079,9.791726460915898
1687192968.8455362,-7.876611688932162e-05,6.247776920862735e-09,2.5770979266544257e-05,0.9999999965658779,-9.357143567626471e-05,5.943756436996268e-07,1.0805592495959078e-06,0.00012700447435866366,-0.001491242523330534,9.80955332437659
1687192968.8555362,-7.874345795224352e-05,5.968619597216634e-09,2.577074576330633e-05,0.9999999965676682,4.729427982172015e-05,-5.082603695583526e-07,-4.929186570885704e-07,-3.1957483596602595e-05,-0.0028525910077478608,9.798665247718825
1687192968.8655362,-7.872049809056392e-05,5.8035291682741525e-09,2.5770474479639425e-05,0.999999996569483,3.656017650164891e-05,-1.5262412930342628e-06,-8.009749617639514e-07,-9.665459870498575e-05,-0.00028706249666683834,9.791820822323926
1687192968.8755362,-7.876578537826604e-05,6.188854473031496e-09,2.5771015791962415e-05,0.9999999965659029,-9.375325973835629e-05,6.020433321448381e-07,1.1288142213933616e-06,0.00012987425031632394,-0.0015075826299657021,9.809584175574143
1687192968.8855362,-7.874307731544894e-05,5.910088002463375e-09,2.577077792428179e-05,0.9999999965676973,4.739964935694633e-05,-5.056634352953286e-07,-5.110666439399432e-07,-3.2879785544109275e-05,-0.002831427178328678,9.798542596975397
1687192968.8955362,-7.872007434920586e-05,5.747979256510344e-09,2.5770498498758103e-05,0.9999999965695158,3.2633452349965175e-05,-1.3483639600533593e-06,-7.711118220246992e-07,-9.81273917651802e-05,-0.00029203885091145447,9.79191207242543
1687192968.9055362,-7.876546684410436e-05,6.129941312374871e-09,2.5771063090258428e-05,0.9999999965659268,-9.391990577776758e-05,6.508479964722501e-07,1.1590869699370085e-06,0.0001318251069855704,-0.0015228843360087564,9.809612054086406
1687192968.9155362,-7.874271198387866e-05,5.852964008120849e-09,2.5770817461377898e-05,0.9999999965677252,4.7500705381435854e-05,-5.031462019104354e-07,-5.292998356801608e-07,-3.372635135641129e-05,-0.0028111099542023916,9.798424802891656
1687192968.9255362,-7.871966560917179e-05,5.702126079192786e-09,2.577052515438912e-05,0.9999999965695473,2.8886622740464845e-05,-1.1740155930848213e-06,-7.398375853661577e-07,-9.920797751265242e-05,-0.00029689610991647636,9.791999967310002
1687192968.9355361,-7.876515058330537e-05,6.109726896676568e-09,2.577110192049309e-05,0.9999999965659507,-9.40807440753138e-05,6.905208285662967e-07,1.191935238364747e-06,0.00013374723202025046,-0.0015372856610334853,9.809638656796253
1687192968.9455361,-7.874234843653238e-05,5.84730667911232e-09,2.577084018255006e-05,0.9999999965677532,-9.412836887167403e-05,6.987530137123438e-07,1.2024991551045416e-06,0.0001248486314250679,-0.003102123989331784,9.809952721787809
1687192968.9555361,-7.871926307360873e-05,5.698290263473145e-09,2.577053371950534e-05,0.9999999965695786,2.532737487142678e-05,-1.0261512508048107e-06,-7.005673468782853e-07,-0.00010017474117260821,-0.00030155421733945816,9.792083329352984
1687192968.965536,-7.876483820829069e-05,6.1212863848322e-09,2.5771123096472e-05,0.9999999965659747,-9.423736733844631e-05,7.168680985225848e-07,1.2265495319923283e-06,0.00013569065940833452,-0.0015508747437831328,9.809663821449254
1687192968.975536,-7.874199661349417e-05,5.851543590894827e-09,2.5770852659965473e-05,0.9999999965677807,4.767712540978395e-05,-5.301828115986491e-07,-5.598147636574003e-07,-3.5837328545791825e-05,-0.0027740981969108045,9.798207011793686
1687192968.985536,-7.871887582720773e-05,5.6964640896300544e-09,2.5770537411350727e-05,0.9999999965696091,2.1902547419719538e-05,-8.939392088542322e-07,-6.630061700221514e-07,-0.0001009799719787392,-0.0003060580806001506,9.792163382912516
1687192968.995536,-7.876453787196377e-05,6.132513232492009e-09,2.577114093538231e-05,0.9999999965659979,-9.438798886438918e-05,7.410670000848258e-07,1.2594878094656999e-06,0.00013751781764567993,-0.0015639336576558798,9.809687997062484
1687192969.005536,-7.874165837663432e-05,5.855809127351118e-09,2.5770863819783782e-05,0.9999999965678069,4.775976735797095e-05,-5.437513320510734e-07,-5.727963185591065e-07,-3.688054989757971e-05,-0.002756643418379609,9.798104552164181
1687192969.015536,-7.8718503554997e-05,5.694944884625639e-09,2.577054125082472e-05,0.9999999965696382,1.860916145225852e-05,-7.706281373506608e-07,-6.271909941263932e-07,-0.00010171726767811012,-0.0003104007208418495,9.792240321361987
1687192969.025536,-7.876424917268184e-05,6.143138869847127e-09,2.5771158794292912e-05,0.9999999965660203,-9.453279570961415e-05,7.637772986745138e-07,1.2908886432040877e-06,4.132139150274303e-08,-0.001545455186261272,9.800002113135262
1687192969.035536,-7.87413332529343e-05,5.859852324612539e-09,2.5770875762200825e-05,0.9999999965678323,4.7839211825145315e-05,-5.565231369347501e-07,-5.850437888222355e-07,-3.7887505998371924e-05,-0.0027398563823718444,9.798006082663461
1687192969.045536,-7.871814572268032e-05,5.69349804414926e-09,2.5770546514988526e-05,0.9999999965696662,1.544289788563349e-05,-6.544142532746655e-07,-5.930541465783256e-07,-0.0001024032975444833,-0.0003145828747482208,9.792314263538975
1687192969.055536,-7.876397168247167e-05,6.153129511618941e-09,2.577117754129489e-05,0.9999999965660415,-9.467199187325495e-05,7.852803985471348e-07,1.320734402451045e-06,0.00014089345452172314,-0.001588548998919825,9.8097335570848
1687192969.065536,-7.874102075305207e-05,5.863614699510199e-09,2.577088899791675e-05,0.9999999965678565,4.791557725311448e-05,-5.685892407150631e-07,-5.966664244236166e-07,-3.8856105012819324e-05,-0.0027237149723515035,9.797911449907922
1687192969.075536,-7.87178017849073e-05,5.692058533788063e-09,2.5770553474304595e-05,0.9999999965696932,1.2399075425351562e-05,-5.445694595060458e-07,-5.60523903596626e-07,-0.00010304390540299201,-0.00031860902497792996,9.79238532483001
1687192969.0855362,-7.876370497341465e-05,6.162499132508697e-09,2.5771197352586968e-05,0.9999999965660622,-9.480579054419589e-05,8.056446554546845e-07,1.3491478852090766e-06,0.0001424556817921403,-0.0016001431805649142,9.809755013408964
1687192969.0955362,-7.87407203924885e-05,5.867091835953022e-09,2.5770903591443695e-05,0.9999999965678797,4.7988981545532e-05,-5.799981600890149e-07,-6.077126458562164e-07,-3.9786816714976866e-05,-0.002708195344678945,9.79782050517343
1687192969.1055362,-7.871747120645376e-05,5.69061005194021e-09,2.5770562116113038e-05,0.9999999965697189,9.473020591735308e-06,-4.4067965748879955e-07,-5.295296423856592e-07,-0.00010364332125185495,-0.0003224845907933956,9.79245361727313
1687192969.1155362,-7.876344862833488e-05,6.171275173619821e-09,2.5771218191345252e-05,0.9999999965660819,-9.493439882205018e-05,8.249349366664839e-07,1.376171169663192e-06,0.00014393894633840597,-0.001611286133201261,9.809775632802742
1687192969.1255362,-7.874043170030988e-05,5.870302260311888e-09,2.5770919422719012e-05,0.9999999965679022,4.805953916493311e-05,-5.907787530579723e-07,-6.182027276567947e-07,-4.0680896970328724e-05,-0.0026932737230414127,9.79773310506352
1687192969.1355362,-7.871715346718124e-05,5.689169993191294e-09,2.5770572242493312e-05,0.9999999965697438,6.660153839034559e-06,-3.425038661384734e-07,-4.999814236536502e-07,-0.00010419763878843724,-0.00032621547617928365,9.79251924867035
1687192969.1455362,-7.876320224299845e-05,6.179497211978467e-09,2.5771239873378428e-05,0.9999999965661007,-9.50580195092723e-05,8.43187530634515e-07,1.4018681435203042e-06,0.00014534613971637288,-0.0016219954611254358,9.809795447891435
1687192969.1555362,-7.874015422278403e-05,5.873258310522927e-09,2.5770936404796472e-05,0.9999999965679235,4.8127361090787915e-05,-6.009656047470365e-07,-6.281683966037926e-07,-4.1540593874705454e-05,-0.002678926701844435,9.797649111356785
1687192969.1655362,-7.871684807099378e-05,5.687715213820805e-09,2.577058387004231e-05,0.9999999965697673,3.95613237029609e-06,-2.4969281605103464e-07,-4.718488398018475e-07,-7.433679495340199e-08,-0.0015448423373374425,9.800012092721392
1687192969.1755362,-7.876296461486202e-05,6.193692579116458e-09,2.5771206169504274e-05,0.9999999965661203,-9.517586637754593e-05,8.605293019694496e-07,1.3663838240489148e-06,0.00014290465720307816,-0.0016322916569250475,9.8098145117237
1687192969.1855361,-7.873988553107912e-05,5.901256274003072e-09,2.5770816244661633e-05,0.9999999965679478,4.81919061467381e-05,-5.964401160707246e-07,-6.037376135608332e-07,-3.839118459321954e-05,-0.0026649114729694924,9.797568089298307
1687192969.1955361,-7.871649888384394e-05,5.8302658305252835e-09,2.5770403221836148e-05,0.9999999965697997,1.626948774099799e-06,8.520322549458551e-08,-5.811723764304384e-07,-0.00010448564433545149,-0.00033187075443717826,9.79263976497242
1687192969.2055361,-7.875846278055641e-05,1.1485645933176051e-08,2.5773667041013715e-05,0.9999999965664114,-8.981625899303892e-05,1.0636989143052152e-05,7.383075664387742e-06,0.0004028463430946071,-0.001480447104943534,9.809280578391135
1687192969.215536,-7.871746606593049e-05,2.3901477076420378e-08,2.577551388294551e-05,0.9999999965695914,-3.869407569963825e-06,7.427244870559313e-05,2.50863748953046e-05,0.0009611031408547192,-0.00277526894982158,9.802646307249628
1687192969.225536,-7.874934223825208e-05,2.0883919520442703e-08,2.5778399060384414e-05,0.9999999965670074,1.3736273936401219e-05,5.8690278871996746e-05,1.1390679423701633e-05,0.0007277555473815092,-0.0013274882012304615,9.799803654043702
1687192969.235536,-7.875273842235054e-05,2.0520127671315468e-08,2.578014511290924e-05,0.999999996566695,1.5379753296976527e-05,5.846006295626922e-05,1.1062946659729867e-05,0.0006911877606210475,-0.0013998775008864837,9.799944768528729
1687192969.245536,-7.875324869357442e-05,2.0421109122868998e-08,2.5781453363119753e-05,0.999999996566621,1.5491431896263986e-05,5.8379187915364324e-05,1.0917308291468672e-05,0.0006868792561848466,-0.0014235130029573487,9.799958463397711
1687192969.255536,-7.87535483039354e-05,2.0362489532784377e-08,2.5782473935367034e-05,0.9999999965665711,1.5458712976091598e-05,5.8227797420839406e-05,1.0733480564039626e-05,-3.3571776561070998e-06,-0.0015423910113078248,9.800001997184049
1687192969.265536,-7.875385729892109e-05,2.0310320650285353e-08,2.578329505155098e-05,0.9999999965665256,1.542278811212131e-05,5.804712258519088e-05,1.0536819917388862e-05,0.0006696858872249546,-0.0014369848220940722,9.799968081817777
1687192969.275536,-7.875417358373754e-05,2.0288499972915562e-08,2.578394236532093e-05,0.999999996566484,1.5392789421872128e-05,5.785549910039462e-05,1.0352182101782467e-05,0.0006594164193621098,-0.001439789250963542,9.799971068172338
1687192969.285536,-7.875448823414906e-05,2.0273208108346147e-08,2.5784457666851563e-05,0.9999999965664461,1.5368939032174524e-05,5.7661167227424476e-05,1.0176838659335289e-05,0.0006490618362039886,-0.0014414886227579475,9.799973010393943
1687192969.295536,-7.875479806438171e-05,2.0251264420978252e-08,2.5784869917408012e-05,0.9999999965664109,-1.4958049778363041e-05,-5.832542762091495e-05,-1.012494329234476e-05,1.54523348252941e-06,-0.0015434057517736699,9.800000431635132
1687192969.305536,-7.875509906964448e-05,2.020344081407949e-08,2.5785158167804024e-05,0.9999999965663798,1.5332576619840954e-05,5.7291833133323314e-05,9.849126981399598e-06,-2.9811433717325865e-06,-0.0015436598497500006,9.80000093240171
1687192969.315536,-7.875539417367914e-05,2.0146591316714146e-08,2.5785350628574292e-05,0.9999999965663516,1.5319062913330565e-05,5.712078281402516e-05,9.699967271745749e-06,0.0006196422315172739,-0.0014428531302488306,9.79997426636331
1687192969.325536,-7.875568438342313e-05,2.0086341649543988e-08,2.578547189267236e-05,0.9999999965663257,1.5308028210054853e-05,5.6954786731314234e-05,9.557356540011506e-06,0.0006100056116973593,-0.0014423424766643858,9.799973221159426
1687192969.3355362,-7.875597004835629e-05,2.002436590220312e-08,2.5785539116930045e-05,0.9999999965663013,1.5299604621386446e-05,5.678684311303568e-05,9.409125723205319e-06,0.000600200797583422,-0.0014414724868869549,9.799971439298933
1687192969.3455362,-7.87562515208281e-05,1.9962223297523322e-08,2.5785560817265387e-05,0.9999999965662787,1.529441883179386e-05,5.660839457351018e-05,9.240714353425137e-06,0.0005901237567741137,-0.0014402329162067282,9.799968557567352
1687192969.3555362,-7.875652891657894e-05,1.989983252833254e-08,2.5785547042135408e-05,0.9999999965662572,1.529040703877942e-05,5.643291830158645e-05,9.076242048047237e-06,0.0005801892420565925,-0.001438825376299021,9.799965453731435
1687192969.3655362,-7.875680251022501e-05,1.9837504241500614e-08,2.5785506490983507e-05,0.9999999965662366,1.5287140352864043e-05,5.6260313226053025e-05,8.914214343953229e-06,-2.7677285436959728e-06,-0.001543263948803188,9.799999882638799
1687192969.3755362,-7.875707251331375e-05,1.977561182487424e-08,2.5785445703292827e-05,0.999999996566217,1.5284471887526682e-05,5.6090214455463384e-05,8.755770957989542e-06,0.0005606095126333338,-0.001435676377390033,9.799958862941265
1687192969.3855362,-7.875733909975909e-05,1.971444860648387e-08,2.5785369650708607e-05,0.9999999965661979,1.528217109598815e-05,5.592247125450682e-05,8.599987803088715e-06,0.0005509695663100513,-0.0014340358666445315,9.799955472941376
1687192969.3955362,-7.875759502341316e-05,1.9661973753530604e-08,2.5785295767050955e-05,0.9999999965661798,1.527598572780964e-05,5.574078716865943e-05,8.435744245446931e-06,0.0005408015066190858,-0.0014325500071042552,9.79995253791312
1687192969.4055362,-7.875784188514399e-05,1.9623001286202937e-08,2.5785249989807688e-05,0.9999999965661615,1.526452005791561e-05,5.5552831788439896e-05,8.271191463386586e-06,0.0005306730661863928,-0.0014314215255309807,9.799949826786161
1687192969.4155362,-7.875808580489386e-05,1.958877544608995e-08,2.5785228968281938e-05,0.9999999965661429,1.525148122994943e-05,5.536445838729555e-05,8.107032890921564e-06,0.0005207359259710299,-0.0014304916432581545,9.79994720742461
1687192969.4255362,-7.8758327205567e-05,1.9557251797087135e-08,2.578522772723907e-05,0.9999999965661238,1.5237541118751478e-05,5.5176743992652494e-05,7.943475528173175e-06,0.0005109293862705706,-0.0014297073183139688,9.799944798138494
1687192969.4355361,-7.875856775055175e-05,1.950568039407881e-08,2.578526487426139e-05,0.999999996566104,1.5223427339724152e-05,5.49941076212833e-05,7.776584053686599e-06,0.0005012958178758221,-0.0014290047762413665,9.799942498004006
1687192969.4455361,-7.875880674132143e-05,1.9444867288006972e-08,2.578533906060485e-05,0.9999999965660833,1.5208111570197651e-05,5.4817776473546356e-05,7.607377738141993e-06,0.0004918307876951665,-0.001428483054453928,9.799940526687347
1687192969.4555361,-7.87590431562291e-05,1.9387134546948202e-08,2.578544007761137e-05,0.9999999965660621,1.5191648968423328e-05,5.4642208685784036e-05,7.438441194047332e-06,0.00048245162115735147,-0.0014281768498060157,9.799938849370193
1687192969.465536,-7.875927702328575e-05,1.933234342641041e-08,2.5785562197477002e-05,0.9999999965660404,1.5174203347551827e-05,5.446567772038682e-05,7.2749721717812945e-06,0.00047338526838874975,-0.0014280238127710376,9.79993738143192
1687192969.475536,-7.875950853088947e-05,1.927881232284789e-08,2.57857070107589e-05,0.9999999965660185,1.5155359888740755e-05,5.428142231824804e-05,7.130728903360863e-06,0.00046443987019977235,-0.0014281141685932412,9.799937551575773
1687192969.485536,-7.875973751752948e-05,1.9227388781637675e-08,2.5785870155133947e-05,0.9999999965659963,1.5135881870234833e-05,5.4098552284900724e-05,6.986607427620032e-06,0.00045554149720295796,-0.0014283302934508042,9.799937919753928
1687192969.495536,-7.875996394547213e-05,1.9177944430979787e-08,2.5786046837686507e-05,0.9999999965659738,1.5115984645489318e-05,5.3917038585549244e-05,6.843191443262265e-06,0.00044675116926728265,-0.0014286335505737902,9.799938431711942
1687192969.505536,-7.87601878212877e-05,1.9130016048024765e-08,2.5786233631289187e-05,0.9999999965659513,1.5095855520629647e-05,5.3737031160931126e-05,6.700579147690634e-06,0.0004380636000179502,-0.0014290418675439547,9.799939036615328
1687192969.515536,-7.876040250077477e-05,1.905963315018466e-08,2.5786400529608503e-05,0.9999999965659302,1.5075275980929094e-05,5.3557521583722016e-05,6.55761425568853e-06,0.00042943667005280214,-0.001429337307264487,9.79993990173192
1687192969.525536,-7.8760607128328e-05,1.896937770178178e-08,2.5786513755823203e-05,0.9999999965659111,1.5053607927138232e-05,5.338692630456712e-05,6.4205819650578385e-06,0.00042072673537712905,-0.0014292806974527442,9.799940293998052
1687192969.535536,-7.876080772885406e-05,1.8897701742845445e-08,2.5786566629800304e-05,0.999999996565894,1.5034018345919712e-05,5.321416514875718e-05,6.290250532540937e-06,0.00041197875066518265,-0.0014289298374960944,9.799939912909293
1687192969.545536,-7.876100496683642e-05,1.8821224536018915e-08,2.5786567673371814e-05,0.9999999965658785,1.501684650561541e-05,5.304511578009546e-05,6.164377864290991e-06,0.00040337762273099336,-0.0014282327439491002,9.79993896616695
1687192969.555536,-7.876119913174695e-05,1.873962981721893e-08,2.578652801495761e-05,0.9999999965658641,1.5001414340904502e-05,5.2880612559807425e-05,6.042529368314828e-06,0.00039486209835291555,-0.0014272944205352552,9.799937637617143
1687192969.565536,-7.876139041615213e-05,1.8654666699488007e-08,2.5786456643681286e-05,0.9999999965658508,1.4987301466433772e-05,5.2720014604524584e-05,5.924159872509151e-06,0.00038643895650110555,-0.0014261848842742715,9.799936035098474
1687192969.575536,-7.876157903504978e-05,1.856811920414723e-08,2.5786359159291246e-05,0.9999999965658385,1.497648209133261e-05,5.254433402320544e-05,5.784022449942781e-06,0.0003776336175441583,-0.0014247587410321327,9.799932968320062
1687192969.5855362,-7.876176506414007e-05,1.8481132420473916e-08,2.578623768965938e-05,0.9999999965658269,1.4967364911582789e-05,5.236551932538161e-05,5.639014740724994e-06,0.0003689370075969384,-0.001423164188254035,9.799929334589274
1687192969.5955362,-7.876194852554825e-05,1.839381261041132e-08,2.578609533035042e-05,0.9999999965658162,1.4958981089620187e-05,5.218959275451119e-05,5.4944685138709295e-06,0.00036059196098623287,-0.0014214872056058942,9.799925533674708
1687192969.6055362,-7.876212955999747e-05,1.8306243599270384e-08,2.5785936256969225e-05,0.9999999965658062,1.495121849414307e-05,5.201629680009101e-05,5.353187462271438e-06,0.0003524960855243202,-0.0014197822509740014,9.799921613372506
1687192969.6155362,-7.876230826595049e-05,1.821882524885837e-08,2.5785764832023447e-05,0.9999999965657964,1.4943872022443753e-05,5.18455555728524e-05,5.214288226018475e-06,0.00034448403122217707,-0.0014180367526123066,9.799917647343706
1687192969.6255362,-7.876248474381638e-05,1.8132139240922684e-08,2.5785584231426432e-05,0.9999999965657872,1.4936800031336049e-05,5.167717816679591e-05,5.07759235737803e-06,0.00033656056325646406,-0.0014162782358945335,9.799913673036466
1687192969.6355362,-7.876265907150531e-05,1.8046593977590343e-08,2.5785396948321765e-05,0.9999999965657783,1.492989520178127e-05,5.151099861723976e-05,4.942954093325158e-06,0.00032872682151908946,-0.001414523025053638,9.79990971832425
1687192969.6455362,-7.876283131366827e-05,1.7962490011400772e-08,2.578520494951895e-05,0.9999999965657697,1.4923074684440142e-05,5.134688799260983e-05,4.8102570088157895e-06,0.0003209833162969025,-0.0014127837079143638,9.799905804194282
1687192969.6555362,-7.876300254943444e-05,1.78531028142082e-08,2.5785033683360027e-05,0.9999999965657606,1.491674760615883e-05,5.1190237694677806e-05,4.675580748365892e-06,0.00031344114448062703,-0.0014110166710466468,9.799901879537835
1687192969.6655362,-7.876317253384899e-05,1.7735044367387164e-08,2.578489038133111e-05,0.9999999965657509,1.4909276397057208e-05,5.1043018528078884e-05,4.5407503682438745e-06,0.00030594866919706604,-0.0014093876557784112,9.799898284994951
1687192969.6755362,-7.876334091111156e-05,1.762317955320648e-08,2.5784768490888248e-05,0.9999999965657407,1.4900746846427975e-05,5.089667147674794e-05,4.406720888825184e-06,0.0002984869478668293,-0.0014079793371000746,9.799895045181115
1687192969.6855361,-7.876350766373712e-05,1.751698465971478e-08,2.5784663123804327e-05,0.9999999965657305,1.489144290114485e-05,5.0750878182238856e-05,4.273527779288478e-06,0.0002911221952388749,-0.0014067245292241084,9.799892074458521
1687192969.6955361,-7.876366572382014e-05,1.7406640345933592e-08,2.5784568628657e-05,0.9999999965657204,1.4883531122244214e-05,5.059057762464864e-05,4.125179571029662e-06,0.0002834851021075606,-0.0014056260709242726,9.79988903826249
1687192969.7055361,-7.876379561455777e-05,1.7264939953882262e-08,2.578446040828625e-05,0.9999999965657129,1.4872749626662655e-05,5.0422991925123256e-05,3.9614352724690385e-06,0.00027591418800802206,-0.0014041782050130621,9.799885650613307
1687192969.715536,-7.8763921691652e-05,1.711650222337985e-08,2.578433590750824e-05,0.9999999965657062,1.4860516084962953e-05,5.025222203990712e-05,3.821886577842323e-06,0.00026875942915812156,-0.0014026356673918525,9.799881135182662
1687192969.725536,-7.876404637366776e-05,1.696787154570232e-08,2.57842007405717e-05,0.9999999965656999,1.4848789705992149e-05,5.008466260611965e-05,3.6845919549199516e-06,0.00026156925634089677,-0.0014010385764088864,9.799876596387834
1687192969.735536,-7.87641680532245e-05,1.6814839969496137e-08,2.5784052340773587e-05,0.9999999965656942,1.4837420381263634e-05,4.9919425934547406e-05,3.5495800264975027e-06,0.0002544662603220394,-0.0013994246600608313,9.79987208777358
1687192969.745536,-7.876426761521062e-05,1.6636943018719495e-08,2.5783867644326605e-05,0.9999999965656912,1.482098772944387e-05,4.976459886488988e-05,3.425631231079607e-06,0.00024738032152999534,-0.0013979722532432622,9.799869051320123
1687192969.755536,-7.876436257731972e-05,1.6469931915126564e-08,2.5783682789456675e-05,0.9999999965656885,-1.5142978219262116e-05,-4.994751151230367e-05,-3.4302591227977028e-06,2.594714607478775e-06,-0.0015442659903256823,9.800003553398785
1687192969.765536,-7.876445626859145e-05,1.630856096865688e-08,2.57835014108271e-05,0.9999999965656857,1.4782491150014043e-05,4.947779282370932e-05,3.1986345374844507e-06,0.0002328225078107761,-0.0013955576387146233,9.799861844968781
1687192969.775536,-7.876454846221262e-05,1.6151245944762962e-08,2.5783323167752257e-05,0.9999999965656831,1.4763199379020774e-05,4.9336144577087136e-05,3.0867691175184366e-06,0.00022568865484710123,-0.0013944170746637168,9.799858443075495
1687192969.785536,-7.87646391847123e-05,1.5997707595291044e-08,2.5783147625425302e-05,0.9999999965656804,-1.5203457306933818e-05,-4.939056964734716e-05,-3.0443962903926204e-06,2.4435906597730585e-06,-0.0015442417484261835,9.800003343602093
1687192969.795536,-7.876472846283491e-05,1.5847805572042604e-08,2.5782974433204056e-05,0.999999996565678,1.472468614202468e-05,4.905796438167096e-05,2.8670620669775445e-06,0.00021172452988850316,-0.0013922880591288236,9.799851950081086
1687192969.805536,-7.876481632245356e-05,1.570142059043408e-08,2.5782803330217575e-05,0.9999999965656754,1.4705510719546678e-05,4.8921492721893676e-05,2.7593013518542593e-06,0.00020489595759877198,-0.0013912946268527476,9.79984884883372
1687192969.815536,-7.876490278822264e-05,1.5558443586548417e-08,2.5782634127497133e-05,0.9999999965656728,1.4686409464220493e-05,4.878677215781487e-05,2.652953060250174e-06,0.00019816869810858624,-0.0013903451942985368,9.7998458388203
1687192969.825536,-7.876498796225971e-05,1.5419323271628816e-08,2.5782465655173087e-05,0.9999999965656704,1.4672544123185229e-05,4.863458905013018e-05,2.5271156070524024e-06,0.00019123516844221698,-0.0013893590221437805,9.799841322665234
1687192969.8355362,-7.876507192736322e-05,1.52843438478518e-08,2.5782295197719843e-05,0.9999999965656683,1.4660864337922184e-05,4.8476894748310045e-05,2.3957487362116976e-06,0.00018445686692358042,-0.0013883487568917964,9.799836286944213
1687192969.8455362,-7.876515475181776e-05,1.5151954524304988e-08,2.5782125544166536e-05,0.9999999965656661,1.4649279474799605e-05,4.83219779071107e-05,2.2679483902977214e-06,0.00017771237090390048,-0.0013874367024898303,9.799832134267113
1687192969.8555362,-7.876523640208855e-05,1.5022378258853085e-08,2.578195793648876e-05,0.9999999965656641,1.4637490116080976e-05,4.816963557446184e-05,2.141217691336241e-06,0.00017092407733972632,-0.001386584289185172,9.799828861290619
1687192969.8655362,-7.87653167620975e-05,1.489583713251909e-08,2.5781792048900058e-05,0.999999996565662,1.4625849763452272e-05,4.801930268065578e-05,2.016939701085935e-06,0.00016423854318531463,-0.0013858056424790198,9.799825681328425
1687192969.8755362,-7.876539584541223e-05,1.477222585302148e-08,2.578162785869023e-05,0.99999999656566,1.4614226248470775e-05,4.7871094357091086e-05,1.894340688608561e-06,0.00015765157588608608,-0.001385077313915698,9.799822599631755
1687192969.8855362,-7.87654736820616e-05,1.4651466816187706e-08,2.5781465302122444e-05,0.999999996565658,1.4602593588350067e-05,4.772495359484965e-05,1.773506023477458e-06,0.00015116337137349693,-0.0013843841979925327,9.799819611562706
1687192969.8955362,-7.876555194297218e-05,1.4515648288796535e-08,2.578131568128657e-05,0.9999999965656556,1.4591462853674528e-05,4.758359490438792e-05,1.6507283373955582e-06,0.00014474850007760814,-0.001383688591552493,9.799816593416875
1687192969.9055362,-7.876563099036333e-05,1.4357291000485589e-08,2.578117415372166e-05,0.9999999965656531,1.4581278659962096e-05,4.745007948947552e-05,1.5208076999262288e-06,0.00013857113571633833,-0.0013829108870868244,9.799813419061847
1687192969.9155362,-7.876570933099187e-05,1.421167227371163e-08,2.5781025099401425e-05,0.9999999965656509,1.4570062885868504e-05,4.731866471631948e-05,1.3972501981427995e-06,0.000132389773672479,-0.0013822455910843959,9.799810422342347
1687192969.9255362,-7.876578668070122e-05,1.40808791325486e-08,2.578086705220242e-05,0.9999999965656489,1.4558948689342823e-05,4.7180516536409225e-05,1.2784653039042565e-06,0.00012635562495130762,-0.0013815568080111109,9.799807507668143
1687192969.9355361,-7.87658627143799e-05,1.3952330136218833e-08,2.5780705457077375e-05,0.9999999965656471,1.4547991963701806e-05,4.704412393982374e-05,1.1624434118657036e-06,0.00012056179945434199,-0.0013808696707628867,9.799804585391104
1687192969.9455361,-7.876593760328572e-05,1.3826160126659509e-08,2.578054207708949e-05,0.9999999965656452,1.4537154364750474e-05,4.6909885735593405e-05,1.048597660988518e-06,0.0001148797734278482,-0.001380202013593933,9.799801698832896
1687192969.9555361,-7.876601135500595e-05,1.3702597591196047e-08,2.578037783553343e-05,0.9999999965656438,1.4526404320035236e-05,4.677754504630131e-05,9.366829345387671e-07,0.00010928975848726572,-0.0013795539978399207,9.799798874041153
1687192969.965536,-7.876608397226034e-05,1.3581749509285734e-08,2.578021335434144e-05,0.9999999965656423,1.451569567952627e-05,4.664717199243324e-05,8.265663923550621e-07,0.00010378388510463145,-0.0013789303841340707,9.799796119785473
1687192969.975536,-7.876615546537889e-05,1.3463650311060887e-08,2.5780049099367327e-05,0.9999999965656409,1.4505015547635325e-05,4.6518614396264304e-05,7.181881791218515e-07,9.836019721512712e-05,-0.0013783321154940764,9.799793439233376
1687192969.985536,-7.876622584645684e-05,1.3348308525290656e-08,2.5779885416932096e-05,0.9999999965656394,1.4494350388940734e-05,4.6391818397567546e-05,6.114957753778445e-07,-1.2049152867415323e-06,-0.0015437185530200763,9.8000005146186
1687192969.995536,-7.876629514851478e-05,1.3235327454360448e-08,2.5779723349861053e-05,0.9999999965656382,1.4483342959071102e-05,4.625714963390234e-05,5.169066450861845e-07,8.805368488673122e-05,-0.001377192437226259,9.799788242788706
1687192970.005536,-7.876636340413886e-05,1.3124523233967077e-08,2.577956553017815e-05,0.9999999965656369,1.4472063956692864e-05,4.611986844478462e-05,4.2840047097100634e-07,8.320904426101991e-05,-0.0013766544081870002,9.799785723926496
1687192970.015536,-7.876643054966338e-05,1.3016886250224316e-08,2.5779411066607147e-05,0.9999999965656358,1.4460679587538123e-05,4.5984332682309434e-05,3.40977479151561e-07,7.84346178652048e-05,-0.001376161315929419,9.799783315459116
1687192970.025536,-7.876638805145845e-05,1.2818442027392445e-08,2.5779223239257427e-05,0.999999996565644,1.4439264031908467e-05,4.5757114761514205e-05,1.8878670466212395e-07,7.171198559338915e-05,-0.0013743125218649396,9.799780118272295
1687192970.035536,-7.876618188247428e-05,1.2436520926703892e-08,2.5778877914049583e-05,0.999999996565669,1.438417377127334e-05,4.546546721379509e-05,-3.7747012684646386e-08,6.148410797508313e-05,-0.0013674857597176361,9.799773676129165
1687192970.045536,-7.876591164422538e-05,1.1944209283330382e-08,2.57783278728499e-05,0.9999999965657046,1.4318918036256554e-05,4.5181311423470596e-05,-2.765229084033831e-07,5.043568091984598e-05,-0.0013585238580067869,9.799760950012907
1687192970.055536,-7.876560164701842e-05,1.1371900553972384e-08,2.577758303699279e-05,0.9999999965657481,1.4252637884978286e-05,4.489514668467309e-05,-5.209495306237607e-07,3.8958067038847904e-05,-0.0013476769852356827,9.799744499330203
1687192970.065536,-7.876525782696772e-05,1.0732180530167682e-08,2.577666319830098e-05,0.9999999965657989,1.4185927544419905e-05,4.4607115620548775e-05,-7.695117198469206e-07,2.679087606622638e-05,-0.0013351060535245186,9.799725188007713
1687192970.075536,-7.876488644535712e-05,1.0039374372038635e-08,2.5775586761792274e-05,0.9999999965658558,1.4135949059973289e-05,4.424991753775587e-05,-1.0862739714447929e-06,1.2895187834313353e-05,-0.0013202652735149038,9.79969663907183
1687192970.0855362,-7.876449454545519e-05,9.25815766328708e-09,2.577437950380779e-05,0.9999999965659179,1.4095630046398059e-05,4.387353631039269e-05,-1.422863672099438e-06,-1.0197148452501393e-06,-0.001304029777072043,9.799663013882672
1687192970.0955362,-7.876412158069952e-05,8.39769828551527e-09,2.577323009644428e-05,0.9999999965659768,1.4044193862023598e-05,4.3615366136397935e-05,-1.6741139534939162e-06,-1.28787874518475e-05,-0.0012877312741138586,9.799631716715693
1687192970.1055362,-7.876382569309001e-05,7.687948896184577e-09,2.5772267296981495e-05,0.999999996566025,1.3994477492341695e-05,4.341282843618921e-05,-1.8712420554113484e-06,-2.4255480032004825e-05,-0.0012751704103860445,9.799605852108806
1687192970.1155362,-7.876352972855252e-05,7.038005001534795e-09,2.577145284505775e-05,0.9999999965660693,1.3945722219567692e-05,4.3133868726531095e-05,-2.1062878531064813e-06,-3.6235321440478985e-05,-0.001265386436739584,9.799582715821044
1687192970.1255362,-7.876268155199972e-05,5.934256285334454e-09,2.5770590723271387e-05,0.9999999965661585,1.3791278792252661e-05,4.2271702489038906e-05,-2.6245859007547923e-06,-5.6976126849038446e-05,-0.001255999258069422,9.799554983154026
1687192970.1355362,-7.875972118692634e-05,5.4917566846289335e-09,2.5770518241950397e-05,0.9999999965663935,1.2795247695025833e-05,4.0259144477009534e-05,-3.1105806770692983e-06,-0.00010924249464187014,-0.0012899596925223511,9.799598911327772
1687192970.1455362,-7.873664574747468e-05,-2.1448713566692168e-09,2.5771579119404603e-05,0.9999999965681832,1.705805123659424e-05,2.1019293550872774e-05,-1.0420270249900563e-05,-0.00024736103411869233,-0.0014466390031472093,9.798886318993214
1687192970.1555362,-7.87287131850576e-05,3.6282831925511037e-09,2.577456112075925e-05,0.9999999965687308,4.360945642115307e-05,1.1043154955292772e-06,-1.0654708248022139e-07,-0.00015658830377718845,-0.0008109371752333428,9.791750470320368
1687192970.1655362,-7.877368104124877e-05,5.155367734622615e-09,2.5775576345797804e-05,0.9999999965651634,-8.833833891433798e-05,1.2559123802256275e-07,5.834253748451243e-07,8.899784412577937e-05,-0.0011605064229014866,9.808554147648431
1687192970.1755362,-7.875309056322829e-05,5.3371481147093865e-09,2.5775624226788057e-05,0.9999999965667841,4.3469434704424204e-05,1.596303214524811e-08,-1.5657132155092604e-07,-2.4721621299997814e-05,-0.0028006200247174705,9.799012823379213
1687192970.1855361,-7.873180846266815e-05,5.428416714875609e-09,2.577551683086799e-05,0.9999999965684626,4.472994106615204e-05,1.0472793871518045e-07,-2.3550419861676775e-07,-6.772196499093717e-05,-0.0007284259261887663,9.792418002555163
1687192970.1955361,-7.877350693451723e-05,5.463858588163705e-09,2.577568434358557e-05,0.9999999965651745,-8.831734352999719e-05,1.7410190777877177e-07,5.121860810713296e-07,9.097881207630613e-05,-0.0011258445352305747,9.808595745005812
1687192970.2055361,-7.875262258419544e-05,5.439247025781563e-09,2.5775550281120102e-05,0.9999999965668228,-8.84041599600591e-05,1.919071236763079e-07,5.192643516436767e-07,9.187194238991985e-05,-0.0011376330646900618,9.808617733436245
1687192970.215536,-7.873117874974966e-05,5.461964841119541e-09,2.577537679372953e-05,0.9999999965685157,4.502745389674637e-05,5.7232244551560926e-08,-2.7582392833524807e-07,-6.934042891615129e-05,-0.0006819638711819631,9.792350103423033
1687192970.225536,-7.877319421840736e-05,5.507726766311997e-09,2.577558630541348e-05,0.9999999965652017,-8.860854631000353e-05,2.454300682367998e-07,5.366049673324349e-07,9.400633852295776e-05,-0.0011677903954176315,9.80867062033106
1687192970.235536,-7.875212055787357e-05,5.49492999823645e-09,2.5775432242147812e-05,0.9999999965668654,4.407912301506162e-05,-1.300316625612233e-07,-2.5266737999734844e-07,-2.5306009060624895e-05,-0.0027982631491526885,9.798991196290924
1687192970.245536,-7.873049289951504e-05,5.531441680741603e-09,2.5775223937040477e-05,0.9999999965685736,4.529847001542747e-05,-4.775804315671137e-10,-3.113711569697668e-07,-7.183622830791392e-05,-0.0006369490009988674,9.792286729228913
1687192970.255536,-7.877268763552762e-05,5.6563048775801685e-09,2.577542943140556e-05,0.9999999965652455,-8.893049956680119e-05,2.780609466847863e-07,5.662418807545034e-07,9.656530854173484e-05,-0.001204721291930078,9.808742256292328
1687192970.265536,-7.875144838884532e-05,5.575850855284132e-09,2.57752347983658e-05,0.9999999965669234,4.431852046479501e-05,-1.7920512937431425e-07,-2.717026190657422e-07,-2.519016713893608e-05,-0.0028055389610718885,9.798985707408622
1687192970.275536,-7.872970338919032e-05,5.566165624807066e-09,2.5775005473072682e-05,0.9999999965686416,4.55092936127105e-05,-2.687443932116553e-08,-3.257907270919338e-07,-7.315398926167146e-05,-0.0005948012184082004,9.792225924145463
1687192970.285536,-7.877212351098606e-05,5.7122849063616955e-09,2.57752134392496e-05,0.9999999965652956,-8.927105401227587e-05,3.0857343605552236e-07,5.882347007455964e-07,9.823434091208296e-05,-0.0012390311079900752,9.808809277890447
1687192970.295536,-7.875077807109871e-05,5.617367535960397e-09,2.577500873073909e-05,0.9999999965669819,4.4542210225208425e-05,-2.051203564096707e-07,-2.828882905836019e-07,-2.539409428292083e-05,-0.002812793018659698,9.798979517142028
1687192970.305536,-7.87289389412478e-05,5.597029392217344e-09,2.577477272483192e-05,0.9999999965687076,4.571199301997995e-05,-4.7121982300341536e-08,-3.3589033007870943e-07,-7.447738384971392e-05,-0.0005540906425758015,9.792166730092896
1687192970.315536,-7.877158103665664e-05,5.761482234328855e-09,2.5775012818946696e-05,0.9999999965653434,-8.96032276005521e-05,3.3261959513222204e-07,6.365797344084915e-07,0.00010115546891429161,-0.0012720432372767129,9.80887414629839
1687192970.325536,-7.875014905330056e-05,5.641803672752525e-09,2.5774830198938225e-05,0.9999999965670361,4.476502038390238e-05,-2.2970754085781936e-07,-3.039593332451575e-07,-2.5619083453234418e-05,-0.0028202823476546745,9.79897325333849
1687192970.3355362,-7.872823228309178e-05,5.603110893794318e-09,2.577460837591963e-05,0.9999999965687675,4.591708255220472e-05,-6.37978855077637e-08,-3.6166458603604944e-07,-7.72350187576218e-05,-0.0005183131737630815,9.792106682579883
1687192970.3455362,-7.877112507356587e-05,5.776926668710002e-09,2.5774892867703313e-05,0.9999999965653825,-8.995722206514891e-05,3.4956119942967363e-07,6.935119702199911e-07,0.0001028168324024924,-0.001297984930989028,9.808940416022592
1687192970.3555362,-7.874958508635148e-05,5.64874485618197e-09,2.5774693395778354e-05,0.999999996567084,4.499647286617428e-05,-2.499714953025093e-07,-3.3448176567386215e-07,-2.583501924573324e-05,-0.002827107509721363,9.79896773254393
1687192970.3655362,-7.872757270668863e-05,5.602991292907962e-09,2.5774459311828335e-05,0.9999999965688232,4.612178169282509e-05,-7.800353211112324e-08,-3.892276487240225e-07,-7.856593898251426e-05,-0.00048661870048226255,9.792047716546435
1687192970.3755362,-7.877068930934171e-05,5.793533380192385e-09,2.577477459160826e-05,0.9999999965654198,-9.029317516295517e-05,3.672213500456223e-07,7.505264817896292e-07,0.00010436615646415287,-0.0013225452132990232,9.80900411650087
1687192970.3855362,-7.874904293101455e-05,5.654013765167807e-09,2.5774571093168907e-05,0.99999999656713,4.521940715024155e-05,-2.7092701376695675e-07,-3.6509888123233666e-07,-2.612146500911995e-05,-0.002833707662708458,9.798962430191738
1687192970.3955362,-7.872694190906927e-05,5.594645091531041e-09,2.577436364763756e-05,0.9999999965688754,4.631944225679027e-05,-9.521573312640105e-08,-4.2510965730450146e-07,-8.289317439155291e-05,-0.0004563308113703453,9.79199091673095
1687192970.4055362,-7.877029827175717e-05,5.822452994046541e-09,2.5774734601504597e-05,0.9999999965654516,-9.063772137718579e-05,3.822403298870972e-07,8.599829537994089e-07,0.00010951454178275562,-0.001343752752677944,9.809067269435673
1687192970.4155362,-7.874855885153367e-05,5.6783881132724455e-09,2.5774503007085394e-05,0.9999999965671698,4.54507053214342e-05,-3.0443584701861155e-07,-3.9492669438883394e-07,-2.623256355363215e-05,-0.002840545853558933,9.798957137333794
1687192970.4255362,-7.872637234843219e-05,5.620332441976197e-09,2.577423631228656e-05,0.9999999965689237,4.652368314216422e-05,-1.2111328250000503e-07,-4.418588577544434e-07,-8.562912221638846e-05,-0.000432652212878269,9.791932077443331
1687192970.4355361,-7.876995519641715e-05,5.864319714796589e-09,2.5774595105717672e-05,0.9999999965654823,-9.096449262850856e-05,3.618495238444827e-07,9.048336186605904e-07,0.00011207100175949559,-0.0013600994260671837,9.809126259320943
1687192970.4455361,-7.874810624567847e-05,5.68873922051429e-09,2.5774366249480977e-05,0.9999999965672088,4.567992712953117e-05,-3.2336473382433476e-07,-4.0863331248450504e-07,-2.644378842113933e-05,-0.0028466961300864795,9.798952412927795
1687192970.4555361,-7.872582750566528e-05,5.608332481606688e-09,2.5774110337125535e-05,0.9999999965689698,4.6721397589391533e-05,-1.2761313156356487e-07,-4.589943224446164e-07,-8.695819618761183e-05,-0.00041133118737539105,9.791884664565771
1687192970.465536,-7.876962055628744e-05,5.8275397844319644e-09,2.577450610139328e-05,0.9999999965655109,-9.124206698205409e-05,3.9578939555460075e-07,8.991461735945683e-07,0.00011335458383074987,-0.0013747937043879252,9.809176102796439
1687192970.475536,-7.874765143296596e-05,5.633936756882892e-09,2.577426375774941e-05,0.9999999965672475,4.5890158941865694e-05,-3.177581085619466e-07,-4.263487725354726e-07,-2.6630193522550667e-05,-0.0028532136173808633,9.798948841658575
1687192970.485536,-7.872526624023974e-05,5.567486835535832e-09,2.577398324305275e-05,0.9999999965690173,4.689318880346544e-05,-1.188973957028269e-07,-4.735754496056786e-07,-2.2790151994864183e-07,-0.001541529458915718,9.799997184847756
1687192970.495536,-7.876921342789361e-05,5.815241898839642e-09,2.5774367584491272e-05,0.9999999965655466,-9.152351883560481e-05,4.29414911139984e-07,9.040145112158278e-07,0.0001143684909983533,-0.001387202793266106,9.809222321306606
1687192970.505536,-7.874714701758602e-05,5.6509008702065014e-09,2.5774105302733504e-05,0.9999999965672912,4.6064194991392775e-05,-3.302112881644452e-07,-4.3498855030908316e-07,-2.6916454608837745e-05,-0.002860348126208001,9.798945752196062
1687192970.515536,-7.87246905550823e-05,5.5838364336511645e-09,2.577381528337718e-05,0.9999999965690668,4.704344843187996e-05,-1.304609450611159e-07,-4.807707209325423e-07,-8.877849041954933e-05,-0.00037256991331685954,9.791801719314577
1687192970.525536,-7.876880482329521e-05,5.844723136806245e-09,2.57742033327012e-05,0.999999996565583,-9.180128305417915e-05,4.454376571836898e-07,9.154431470398621e-07,0.00011556523139257033,-0.0013988577624485402,9.809266100502729
1687192970.535536,-7.874665972828834e-05,5.673535715583815e-09,2.5773937033277006e-05,0.9999999965673338,4.623077622484832e-05,-3.434703190678181e-07,-4.4130671054052407e-07,-2.581376789217582e-07,-0.0015431692805576152,9.799996830772248
1687192970.545536,-7.872413674263807e-05,5.601107308487735e-09,2.5773644130045667e-05,0.9999999965691148,4.718784281759775e-05,-1.4105274139248092e-07,-4.866014918459796e-07,-8.979972440205748e-05,-0.0003543580432722388,9.791762358782226
1687192970.555536,-7.876841189265204e-05,5.8734104351767266e-09,2.5774038782588022e-05,0.9999999965656181,-9.206838395834865e-05,4.6004994930915826e-07,9.267550625455539e-07,0.00011670464377925872,-0.0014100723339963842,9.809308183766028
1687192970.565536,-7.87461911966847e-05,5.6957180652380785e-09,2.5773770615704467e-05,0.999999996567375,4.639092853587832e-05,-3.5597850433404646e-07,-4.470210602993221e-07,-2.717662341469043e-05,-0.002873918408688487,9.798939357136993
1687192970.575536,-7.872360429644501e-05,5.618082130544028e-09,2.5773476266748362e-05,0.9999999965691612,4.7326662287605285e-05,-1.511339640058296e-07,-4.919811726292956e-07,-9.078115346771001e-05,-0.0003368434816171382,9.791724519753316
1687192970.5855362,-7.876803415188938e-05,5.901214296283207e-09,2.5773878131607386e-05,0.999999996565652,-9.232516357746827e-05,4.740364968416826e-07,9.3781382147675e-07,0.00011780384150045632,-0.001420853527756377,9.809348639282302
1687192970.5955362,-7.8745740801083e-05,5.717281410171044e-09,2.5773608562242678e-05,0.9999999965674148,4.654488504558298e-05,-3.6802667926288474e-07,-4.524684935954213e-07,-2.7300644017139594e-05,-0.0028803123873633926,9.798936344422737
1687192970.6055362,-7.87230924821707e-05,5.6346368286368395e-09,2.5773313000533117e-05,0.9999999965692055,4.74601041151696e-05,-1.6087454061395207e-07,-4.971118779309907e-07,-9.172295028060383e-05,-0.0003200198351007025,9.791688145356702
1687192970.6155362,-7.876767105124745e-05,5.9282251553174305e-09,2.5773721944549134e-05,0.9999999965656846,-9.257199727273937e-05,4.87577340103139e-07,9.484697954949008e-07,0.00011885962401205124,-0.0014312092264447572,9.8093875276936
1687192970.6255362,-7.874530781995086e-05,5.738224067846586e-09,2.5773451242882506e-05,0.9999999965674529,-9.264416992025689e-05,4.915606863393033e-07,9.516573714271265e-07,0.0001150665744361196,-0.003085567870987368,9.810419677291051
1687192970.6355362,-7.87226003882788e-05,5.650686737858165e-09,2.5773154686193622e-05,0.9999999965692483,4.758838737615711e-05,-1.703191368149565e-07,-5.020878523955298e-07,-9.264456397664269e-05,-0.00030382082146627066,9.79165317358955
1687192970.6455362,-7.876732182802319e-05,5.954469679810622e-09,2.5773570416461043e-05,0.9999999965657161,-9.280935107967743e-05,5.006855844978198e-07,9.59011703851909e-07,0.00011988963756982706,-0.001441181261326022,9.809424932303141
1687192970.6555362,-7.874489144936986e-05,5.7587840523963045e-09,2.5773297005046495e-05,0.9999999965674896,4.683503788815894e-05,-3.907201740461174e-07,-4.624621246217848e-07,-2.7528175226614016e-05,-0.002892358900850829,9.798930650925298
1687192970.6655362,-7.872212623809125e-05,5.672237132218906e-09,2.577297174130443e-05,0.9999999965692904,4.707380059000279e-05,-2.7229934704999504e-07,-7.504661290955775e-07,-0.00010043334432444194,-0.0002908179615922098,9.791636112916475
1687192970.6755362,-7.876697964500949e-05,5.987648220626807e-09,2.577333000181144e-05,0.9999999965657491,-9.303302212355687e-05,5.022972229347452e-07,9.107515145653968e-07,0.00011729568213062424,-0.001453388528210691,9.809461455848087
1687192970.6855361,-7.874448066971519e-05,5.79649700271838e-09,2.5773018729710747e-05,0.9999999965675292,4.697073870352075e-05,-3.880136619714692e-07,-4.445213425223142e-07,-1.6974565594520174e-05,-0.0028858563123621813,9.798876346026761
1687192970.6955361,-7.872165636338792e-05,5.711131949005835e-09,2.577268598905017e-05,0.9999999965693347,4.437685196859431e-05,-1.0779306924561813e-06,-9.881824202353476e-07,-6.394403326854046e-07,-0.001544630171596494,9.800009309652095
1687192970.7055361,-7.876664110919396e-05,6.02438995973246e-09,2.577301024761732e-05,0.9999999965657841,-9.325201318025397e-05,4.753038905554116e-07,8.837509252216507e-07,0.00011503070229791867,-0.001468135375333816,9.809497977892976
1687192970.715536,-7.874407980006443e-05,5.836387043019396e-09,2.5772704346470847e-05,0.9999999965675689,4.710240706916684e-05,-3.8169371801971264e-07,-4.220474201273484e-07,-1.3782760457062644e-05,-0.002873025666313989,9.798804433549595
1687192970.725536,-7.872120222819695e-05,5.7522243496041e-09,2.5772379606946886e-05,0.9999999965693784,4.1731428898651814e-05,-1.867157725455279e-06,-1.2152844569963523e-06,-0.00010221335258473885,-0.00028670094052086494,9.79170701732522
1687192970.735536,-7.876631575668214e-05,6.051712664391577e-09,2.5772712906713643e-05,0.9999999965658175,-9.3463868913971e-05,4.3944820470754084e-07,8.994372194257566e-07,0.00011501299507288215,-0.0014824140276280826,9.809533058618905
1687192970.745536,-7.874369596375807e-05,5.849823779544214e-09,2.5772480167649812e-05,0.9999999965676049,4.7229349073813534e-05,-3.813648694014867e-07,-4.158898937833599e-07,-2.5551828968937744e-05,-0.0028609209453177003,9.798736026170067
1687192970.755536,-7.872076803438341e-05,5.749263216451249e-09,2.5772233687665745e-05,0.9999999965694163,3.8761793029793645e-05,-2.574042873448737e-06,-9.751659110437295e-07,-8.673751197206309e-05,-0.00028720707247335765,9.791758135590415
1687192970.765536,-7.876599920242197e-05,6.047242440901993e-09,2.5772677771878694e-05,0.9999999965658433,3.752737675144794e-05,-2.5127114039956704e-06,-9.62926285302743e-07,3.963345464500175e-05,8.499427087063746e-05,9.801685255892115
1687192970.775536,-7.874331825899231e-05,5.827774215517895e-09,2.5772467374418908e-05,0.9999999965676348,4.7342648982596594e-05,-3.955224668217663e-07,-4.390860271009581e-07,-3.238301308091463e-05,-0.0028411722826117355,9.798622781999603
1687192970.785536,-7.87203388877093e-05,5.7115645946556914e-09,2.5772222283083927e-05,0.9999999965694505,3.473977387746552e-05,-2.3665824251955287e-06,-9.386595465480849e-07,-8.854031763550311e-05,-0.00029214237866650745,9.791852179630224
1687192970.795536,-7.876567351131243e-05,5.996225635950771e-09,2.577269599682354e-05,0.9999999965658686,-9.382083729634529e-05,4.778532666994688e-07,9.954399225936242e-07,0.00012187325181651895,-0.001513399064854784,9.809593489553045
1687192970.805536,-7.874294367034023e-05,5.7734887449834905e-09,2.5772476108420728e-05,0.9999999965676643,4.744602051837802e-05,-3.9687225734647604e-07,-4.599878812654763e-07,-3.326303733052328e-05,-0.0028204592416344347,9.798501940006519
1687192970.815536,-7.871992071599309e-05,5.663368498539035e-09,2.577221813449026e-05,0.9999999965694835,3.0903503639161624e-05,-2.1580421758817974e-06,-9.022863626426209e-07,-8.992952968839562e-05,-0.00029703207766985907,9.791942478098635
1687192970.825536,-7.876535082476996e-05,5.974733605285073e-09,2.5772708263011038e-05,0.9999999965658937,-9.398530667869237e-05,5.249155125543664e-07,1.033594228902829e-06,0.000124151505958815,-0.0015282113028323957,9.809620846298515
1687192970.8355362,-7.874257240117333e-05,5.765495353655011e-09,2.5772471570458467e-05,0.9999999965676936,4.753924824561465e-05,-4.114393376745207e-07,-4.792198816839746e-07,-3.433093043889387e-05,-0.002801151602271695,9.798387640196621
1687192970.8455362,-7.871950851657514e-05,5.659843375656666e-09,2.577219705659287e-05,0.9999999965695164,2.726612762252902e-05,-1.975121228305994e-06,-8.570644726976053e-07,-9.12413696098783e-05,-0.0003016961242077469,9.792028067017702
1687192970.8555362,-7.876503075055444e-05,5.990639603095038e-09,2.5772702532323108e-05,0.999999996565919,-9.414562025003268e-05,5.570966217810251e-07,1.0739580061113098e-06,0.00012645573175138307,-0.0015421488073689576,9.809646692545096
1687192970.8655362,-7.87422119438018e-05,5.772303780935523e-09,2.5772455928364178e-05,0.9999999965677224,4.762721677795964e-05,-4.2964517901644045e-07,-4.957543766263865e-07,-3.544117174037105e-05,-0.002782658710185424,9.798278204341242
1687192970.8755362,-7.871911180095934e-05,5.659122649684166e-09,2.5772171285526154e-05,0.9999999965695484,4.7652942120561236e-05,-4.348595616116432e-07,-5.004639103965766e-07,-0.0001600398478875608,-0.0015355652624788345,9.787921863066378
1687192970.8855362,-7.876472299471197e-05,6.006155809818196e-09,2.5772693853818185e-05,0.9999999965659434,-9.429980027031383e-05,5.868016407203669e-07,1.112449343365901e-06,9.001416406165642e-08,-0.0015455771053950206,9.800002266710088
1687192970.8955362,-7.874186539938121e-05,5.779096188614905e-09,2.5772439595094914e-05,0.99999999656775,4.7711799329743635e-05,-4.4666941468769806e-07,-5.111212587129103e-07,-3.652817041668878e-05,-0.002764859752351017,9.798173033220213
1687192970.9055362,-7.871873041933549e-05,5.658705812727818e-09,2.5772146456528447e-05,0.9999999965695789,2.0399301071431592e-05,-1.6562650601423238e-06,-7.723122698516413e-07,-9.338766359507989e-05,-0.00031056392672040314,9.79218919065969
1687192970.9155362,-7.876442715874659e-05,6.020934123495565e-09,2.577268595420937e-05,0.9999999965659668,-9.44480290657578e-05,6.148352729285634e-07,1.1491642483114316e-06,0.00013069679539601714,-0.0015684150135750613,9.809695378977048
1687192970.9255362,-7.874153228596687e-05,5.785591032191876e-09,2.5772424885029574e-05,0.9999999965677767,4.7793109733651244e-05,-4.627702441728742e-07,-5.256612155052939e-07,-3.757786105689826e-05,-0.002747741685336316,9.798071955765298
1687192970.9355361,-7.871836382703328e-05,5.658334381268957e-09,2.5772123964930135e-05,0.9999999965696085,1.7162976960136517e-05,-1.5101721179652022e-06,-7.327793830531893e-07,-9.435820478336559e-05,-0.000314756047340621,9.792265080877865
1687192970.9455361,-7.8764142805963e-05,6.0349391019022205e-09,2.5772679770523667e-05,0.9999999965659894,-9.459051780401002e-05,6.41410259183989e-07,1.1842363447065406e-06,0.00013266516742861892,-0.0015807877176218887,9.809718308386065
1687192970.9555361,-7.874121210358373e-05,5.791726418085778e-09,2.5772412336658097e-05,0.9999999965678023,4.7871269043596886e-05,-4.780477068086767e-07,-5.394906647632484e-07,-3.858774063752534e-05,-0.0027312822256110865,9.79797481466972
1687192970.965536,-7.871801146646504e-05,5.6579399066389425e-09,2.577210407821167e-05,0.9999999965696367,1.4051817403803611e-05,-1.3715014518692745e-06,-6.950358362620895e-07,-9.527447376724051e-05,-0.00031879145299358765,9.792338016090964
1687192970.975536,-7.876386949808088e-05,6.048189039114274e-09,2.577267545519257e-05,0.999999996566011,-9.472748031391697e-05,6.666995100948864e-07,1.2176308570485812e-06,0.00013453845270795214,-0.0015926791392497231,9.809740344242547
1687192970.985536,-7.87409043562166e-05,5.797499950200615e-09,2.5772401986077532e-05,0.9999999965678267,4.7946397789995596e-05,-4.925552465185979e-07,-5.526634577960667e-07,-3.955849471254785e-05,-0.0027154570523994165,9.797881457549813
1687192970.995536,-7.871767278966855e-05,5.6575052493894865e-09,2.5772086759582977e-05,0.9999999965696638,1.1061047054738948e-05,-1.239795680951371e-06,-6.590073870380309e-07,-9.613843502312459e-05,-0.0003226755747629446,9.792408110557298
1687192971.005536,-7.876360680865529e-05,6.0607131371064165e-09,2.5772672987712616e-05,0.9999999965660318,-9.485913047317543e-05,6.907444967815606e-07,1.2494858485347833e-06,0.00013632361888360134,-0.0016041079459071306,9.80976152106464
1687192971.015536,-7.874060856300872e-05,5.802921981428076e-09,2.577239376598078e-05,0.9999999965678501,4.8018612902156985e-05,-5.063337893121948e-07,-5.652168452633253e-07,-4.049115761158342e-05,-0.002700242040432903,9.797791737215064
1687192971.025536,-7.87173472667851e-05,5.6570285817469915e-09,2.5772071893226005e-05,0.99999999656969,8.186032227680384e-06,-1.1146949587001634e-06,-6.246167049990423e-07,-9.695364432294151e-05,-0.00032641396908272033,9.792475474864693
1687192971.035536,-7.876335432569908e-05,6.072545565477154e-09,2.5772672265233424e-05,0.9999999965660517,-9.49856737752628e-05,7.136045700795383e-07,1.2798666271838923e-06,0.0001380244233106281,-0.0016150920958044293,9.809781872294016
1687192971.045536,-7.874032426009955e-05,5.8080091046744665e-09,2.5772387556299586e-05,0.9999999965678728,4.808802738841081e-05,-5.19417980956262e-07,-5.771794712020869e-07,-4.1387216850703134e-05,-0.0026856137322483903,9.797705512242313
1687192971.055536,-7.871703438748215e-05,5.6565107312072185e-09,2.577205935040739e-05,0.9999999965697148,5.422290312770543e-06,-9.95886059484196e-07,-5.917949499195369e-07,-9.772328087800933e-05,-0.000330012088012716,9.792540215414071
1687192971.065536,-7.876311165327916e-05,6.083718100162042e-09,2.5772673199832166e-05,0.9999999965660709,-9.510730828541136e-05,7.353369383782462e-07,1.3088481677703582e-06,0.0001396454837294508,-0.001625648880192834,9.809801430100228
1687192971.075536,-7.874005079059217e-05,5.81504194551684e-09,2.577237260586232e-05,0.9999999965678946,4.8154551052817004e-05,-5.302317231541854e-07,-5.858014362419897e-07,-4.229850639826006e-05,-0.0026715521643878937,9.797622643869047
1687192971.0855362,-7.871670257227576e-05,5.72145269747157e-09,2.5772027089435008e-05,0.9999999965697417,2.9682315316794114e-06,-7.111432037828336e-07,-6.132477648215217e-07,-9.994578473649095e-05,-0.00033193271353821815,9.792600356387366
1687192971.0955362,-7.876268894370181e-05,6.464474416550768e-09,2.57728323288594e-05,0.9999999965661,-9.496592049798272e-05,1.1659212133476565e-06,1.5836033628373273e-06,-3.5852370300376026e-06,-0.00154558558168147,9.80000423542112
1687192971.1055362,-7.873966467212487e-05,6.03741108481478e-09,2.5772419888247723e-05,0.9999999965679239,4.813222182971431e-05,-6.66885637334306e-07,-5.975997646460139e-07,-3.729641690307011e-05,-0.002660702676293287,9.797551799355315
1687192971.1155362,-7.871548183494423e-05,7.066011053717046e-09,2.5772711786026444e-05,0.9999999965698201,7.884114657563006e-06,3.286020367513398e-06,-5.414528151804559e-08,-7.880727424736266e-05,-0.0003233933454772611,9.792613287249909
1687192971.1255362,-7.870994402760287e-05,3.297840017209777e-08,2.5783848277137552e-05,0.9999999965699685,-2.2056284189181696e-05,6.054116435154328e-05,1.948356611169281e-05,0.0006196440185663982,-0.0005891245200708628,9.805506881000177
1687192971.1355362,-7.87493268707414e-05,1.9573185118904125e-08,2.5777270777503763e-05,0.9999999965670379,1.3832518840178138e-05,5.876350884631463e-05,1.1306182103443434e-05,0.0006549250315800659,-0.001203118353499304,9.799766047686866
1687192971.1455362,-7.875278438044339e-05,2.0047394814812767e-08,2.5779849069672452e-05,0.9999999965666989,1.551427535228518e-05,5.8543058829718364e-05,1.1127193079815286e-05,0.0006734885310970337,-0.001365007273740116,9.79992035435173
1687192971.1555362,-7.875320561344352e-05,2.0182866940506414e-08,2.5781581735528766e-05,0.9999999965666211,1.5598020906969216e-05,5.845750155370068e-05,1.100832334595822e-05,0.0006841616490810246,-0.0014056206228669921,9.799938626207306
1687192971.1655362,-7.87534686760697e-05,2.0172562517808036e-08,2.5782847615014392e-05,0.9999999965665679,1.554728683530952e-05,5.831244099343117e-05,1.0825469045893321e-05,0.0006803089214358828,-0.001419296808800901,9.799946578196572
1687192971.1755362,-7.875376832127076e-05,2.013229315055908e-08,2.5783835780150644e-05,0.9999999965665188,1.550087047180628e-05,5.813191070423942e-05,1.062133407659949e-05,0.0006715090747834603,-0.0014257667736153085,9.799952398841937
1687192971.1855361,-7.875408487028257e-05,2.008586176771162e-08,2.5784632817845914e-05,0.9999999965664733,1.546463228940099e-05,5.7941543433674837e-05,1.0418101565424656e-05,0.0006613587313278154,-0.001429627597115746,9.799956704457669
1687192971.1955361,-7.875440290131459e-05,2.006578464652277e-08,2.5785259111814264e-05,0.999999996566432,1.543430660553025e-05,5.7748463808791405e-05,1.0232427506892633e-05,0.0006510026931627162,-0.0014323649238626676,9.79995989254837
1687192971.2055361,-7.87547129737276e-05,2.0031604910695017e-08,2.578571460402776e-05,0.9999999965663959,1.5410021291729552e-05,5.755852665342036e-05,1.0061392705674104e-05,0.0006407219877677229,-0.0014340115704284692,9.799962200382273
1687192971.215536,-7.87550163552941e-05,1.998630818346408e-08,2.578603628069637e-05,0.9999999965663637,1.539030560196825e-05,5.7378159664663054e-05,9.901196782614906e-06,0.00063035808480828,-0.0014348617092069433,9.799963170748372
1687192971.225536,-7.875531400665104e-05,1.993603058842844e-08,2.578625419900815e-05,0.9999999965663345,1.5374307037647117e-05,5.720405759047846e-05,9.74881617922054e-06,0.0006206728920032524,-0.0014351212454112193,9.79996319361279
1687192971.235536,-7.875560638923872e-05,1.9882292457489512e-08,2.578639379009257e-05,0.9999999965663079,1.536112764281559e-05,5.7035218625682166e-05,9.603600425654184e-06,-2.7562924343166197e-06,-0.0015435968468870153,9.800000823811756
1687192971.245536,-7.875589400498941e-05,1.9826736689586954e-08,2.5786471729622775e-05,0.9999999965662832,1.5352263703924238e-05,5.6853521400117423e-05,9.433229720170862e-06,0.0006008739074654458,-0.0014342150155910506,9.799960568295226
1687192971.255536,-7.875617713137583e-05,1.9770299062759967e-08,2.5786499496723737e-05,0.9999999965662603,1.5345426505969264e-05,5.6673233163727174e-05,9.264094775707808e-06,0.0005908639858383724,-0.0014332185689686064,9.799958058391478
1687192971.265536,-7.875645606824909e-05,1.9713118568476435e-08,2.578648953400082e-05,0.9999999965662387,1.533980604353391e-05,5.649626534915267e-05,9.098170988298475e-06,0.0005809376419115113,-0.0014320057006219156,9.79995529563578
1687192971.275536,-7.875673111855855e-05,1.965575747313269e-08,2.578645094283105e-05,0.999999996566218,-1.4978949098368774e-05,-5.7022896455374164e-05,-9.053022637276894e-06,2.1036240884702115e-06,-0.001543997098693735,9.800001454493612
1687192971.285536,-7.875700250611164e-05,1.959862283595354e-08,2.5786390748020593e-05,0.9999999965661982,1.5331103498900015e-05,5.615068873015236e-05,8.77724387936928e-06,0.0005613633593119996,-0.0014292860093910369,9.79994930191114
1687192971.295536,-7.875727042063412e-05,1.9542031753156617e-08,2.5786314229486493e-05,0.999999996566179,1.5327516640362023e-05,5.59816427946363e-05,8.621017554446047e-06,0.0005517254689842648,-0.0014278286709274186,9.799946185534983
1687192971.305536,-7.87575350119742e-05,1.9486207392750562e-08,2.57862254250305e-05,0.9999999965661606,1.5324223133320503e-05,5.5814846802452226e-05,8.467276194829782e-06,0.0005421911608772859,-0.0014263426909105652,9.799943040385907
1687192971.315536,-7.875779016523926e-05,1.9437571647920933e-08,2.5786138241410998e-05,0.9999999965661426,1.531772683132508e-05,5.5636101477744374e-05,8.306114709536747e-06,0.0005322045881826408,-0.0014249863893287611,9.799940276698328
1687192971.325536,-7.875803512072934e-05,1.9403446415951164e-08,2.578608080132292e-05,0.9999999965661249,1.5305357750662942e-05,5.544903310820478e-05,8.14333366247644e-06,0.0005221557497758236,-0.0014240037464005543,9.799937862598606
1687192971.3355362,-7.875827744471958e-05,1.9368263639017957e-08,2.5786057460380282e-05,0.9999999965661065,1.5291409418217997e-05,5.526155394536196e-05,7.979877379721016e-06,0.0005122855293525877,-0.001423237699746859,9.799935481992847
1687192971.3455362,-7.87585194469645e-05,1.931030028897259e-08,2.5786085156221955e-05,0.9999999965660866,1.527659568428177e-05,5.5082265516743844e-05,7.811095414390902e-06,0.0005027132142215443,-0.0014225843469592683,9.799933301153326
1687192971.3555362,-7.875875916790596e-05,1.9253624692863743e-08,2.578615057419875e-05,0.9999999965660661,1.5260152744641133e-05,5.4904774319536314e-05,7.6416082014362e-06,0.000493191417793463,-0.0014222157927280504,9.79993154008778
1687192971.3655362,-7.8758996343059e-05,1.9200589349047884e-08,2.578624438832155e-05,0.9999999965660449,1.524253962787724e-05,5.4727563447649614e-05,7.4723860104184145e-06,0.00048379165797277703,-0.0014220500574306507,9.799930062367675
1687192971.3755362,-7.875923096759602e-05,1.915024390743117e-08,2.5786360812208592e-05,0.9999999965660235,-1.4982516943827757e-05,-5.52930544478947e-05,-7.599099372210946e-06,1.4707001939741433e-06,-0.0015437482780684163,9.800001663752036
1687192971.3855362,-7.875946314193482e-05,1.9101746800902126e-08,2.578649887548816e-05,0.9999999965660016,1.5203463467237712e-05,5.435754722019748e-05,7.171747389327218e-06,0.0004663527379006765,-0.0014221555159572793,9.799927718745273
1687192971.3955362,-7.875969292488556e-05,1.9054855455925275e-08,2.5786656812877846e-05,0.9999999965659794,1.518286345353939e-05,5.4173037460424185e-05,7.027087341743533e-06,0.00045741407865988536,-0.0014225073410718805,9.799928311297524
1687192971.4055362,-7.875992013436739e-05,1.9009844088541664e-08,2.578682944500438e-05,0.9999999965659571,1.5161841876055215e-05,5.398995513338317e-05,6.882965258971152e-06,0.00044858450585957366,-0.0014229552798377988,9.799929055767754
1687192971.4155362,-7.876014381687247e-05,1.8962713095687165e-08,2.5787009168741493e-05,0.999999996565935,1.5140566850822006e-05,5.380833201483251e-05,6.739695065418251e-06,0.0004398603715256929,-0.0014234657081526364,9.799929907719113
1687192971.4255362,-7.876035412298316e-05,1.8878228148744427e-08,2.5787146488715745e-05,0.9999999965659148,1.511832371628832e-05,5.362895877860819e-05,6.596267582274521e-06,0.0004310746843229017,-0.001423698172668271,9.799930977011698
1687192971.4355361,-7.876055882085409e-05,1.8779896669777165e-08,2.5787242818873646e-05,0.9999999965658962,1.5096424319461313e-05,5.345778213857186e-05,6.458221023365045e-06,0.0004221951361578898,-0.0014236104161662925,9.799931137751956
1687192971.4455361,-7.876076065950404e-05,1.8689401184471112e-08,2.57873018112129e-05,0.9999999965658787,1.5075399701829986e-05,5.329099366466562e-05,6.326086953097732e-06,0.0004134941097729114,-0.001423406536869962,9.799930909987982
1687192971.4555361,-7.876095907327751e-05,1.861843811298206e-08,2.578731134100594e-05,0.9999999965658628,1.5056582723958037e-05,5.312065107948406e-05,6.199206063979505e-06,0.0004048020574009061,-0.0014229363319908852,9.799930339667993
1687192971.465536,-7.876115426933208e-05,1.854380958658687e-08,2.578727867866284e-05,0.9999999965658483,1.5039766402740839e-05,5.2953889111668234e-05,6.0762638960097105e-06,0.0003962711800868901,-0.0014221942320243185,9.799929327327975
1687192971.475536,-7.876134650620848e-05,1.84653349091294e-08,2.5787212973154722e-05,0.9999999965658348,1.50247453952749e-05,5.2788104522567003e-05,5.95296618786515e-06,0.00038774858403702213,-0.0014212311664828735,9.799927812423274
1687192971.485536,-7.876153605224437e-05,1.838530009678579e-08,2.5787118272439025e-05,0.9999999965658224,1.5013489076044403e-05,5.260491878973987e-05,5.804459739913737e-06,0.0003788469204987868,-0.001419916547527218,9.799924626385481
1687192971.495536,-7.876172291130078e-05,1.8303871743524295e-08,2.5786999327238985e-05,0.9999999965658107,1.5003267912639304e-05,5.242467799907737e-05,5.659324283774448e-06,0.0003701436823730963,-0.0014184760191493855,9.799921257876028
1687192971.505536,-7.876190722933061e-05,1.8221426069650135e-08,2.5786861790490512e-05,0.9999999965657997,1.4993776004121511e-05,5.22475100401213e-05,5.515746811382961e-06,0.00036152250450850986,-0.0014169259646132186,9.799917770818956
1687192971.515536,-7.876208909533494e-05,1.8139203993300936e-08,2.5786707192239895e-05,0.9999999965657894,1.4984865765325466e-05,5.207291171397402e-05,5.373886510876333e-06,0.0003532967527319915,-0.0014153715283328745,9.799914139176813
1687192971.525536,-7.876226859919946e-05,1.8057045469787017e-08,2.57865392524187e-05,0.9999999965657795,1.4976450798882632e-05,5.19008037954556e-05,5.2345489543206544e-06,0.00034528283642268446,-0.0014137760069346432,9.799910427171923
1687192971.535536,-7.876244584804398e-05,1.7975339416370896e-08,2.5786361473372776e-05,0.9999999965657702,1.496836998340457e-05,5.173112284554916e-05,5.097459083095763e-06,0.0003373559565644659,-0.001412158054174844,9.799906691368733
1687192971.545536,-7.876262092078354e-05,1.7894537519135218e-08,2.578617650291668e-05,0.9999999965657612,1.4960506025926637e-05,5.1563698665913475e-05,4.962455646953582e-06,0.00032951796150206187,-0.0014105359514966962,9.79990296262847
1687192971.555536,-7.876279401191061e-05,1.7811554727326844e-08,2.5785989818331148e-05,0.9999999965657523,1.4952825033327182e-05,5.139845706695503e-05,4.829178438448918e-06,0.0003217663060259377,-0.0014089230358962815,9.799899257086304
1687192971.565536,-7.876296630044843e-05,1.7698508194989126e-08,2.5785830014413633e-05,0.999999996565743,1.4945499659949314e-05,5.1244421120504034e-05,4.692816930913284e-06,0.0003142673767990235,-0.0014072651511236856,9.799895565955307
1687192971.575536,-7.87631370588053e-05,1.7586037669519225e-08,2.578569511373053e-05,0.9999999965657329,1.4936851123091763e-05,5.109595342544636e-05,4.5574128062645486e-06,0.0003067258992093916,-0.0014058199996132637,9.799892263943768
1687192971.5855362,-7.876330617280947e-05,1.7479620490791546e-08,2.5785579414291182e-05,0.9999999965657226,-1.5043967441285809e-05,-5.142452725611195e-05,-4.416026048588936e-06,-0.00030040762191610416,-0.001682909890358633,9.800112444905293
1687192971.5955362,-7.876347362550462e-05,1.7378361527535317e-08,2.5785478567553012e-05,0.999999996565712,1.4917059890126476e-05,5.0800837452760284e-05,4.289267505246291e-06,-2.0606286177446014e-06,-0.0015435285058686568,9.800000327597502
1687192971.6055362,-7.876363938716625e-05,1.7281407023541823e-08,2.5785389276921188e-05,0.9999999965657014,1.4906323503140276e-05,5.065444548426913e-05,4.1567573333016495e-06,0.0002846243474620024,-0.0014024212775759323,9.799883966083053
1687192971.6155362,-7.876378708769715e-05,1.716752103332144e-08,2.5785302481303407e-05,0.9999999965656919,1.4897273389248336e-05,5.0480631975581084e-05,4.002878079228741e-06,0.00027712841533113946,-0.0014014674027673785,9.799881250579642
1687192971.6255362,-7.876391360097245e-05,1.7027161982727724e-08,2.5785198116147505e-05,0.9999999965656847,1.488396692310128e-05,5.030427191329935e-05,3.859830141124205e-06,0.00027007440631145624,-0.0014001033582257435,9.799877529990624
1687192971.6355362,-7.876403795872837e-05,1.6883393103320165e-08,2.5785077050721358e-05,0.999999996565678,1.4870905787141884e-05,5.013440027861186e-05,3.7203594843144377e-06,0.00026288683796158314,-0.0013986895516618328,9.799873228045927
1687192971.6455362,-7.876415884486748e-05,1.6732702086390865e-08,2.5784936839428082e-05,0.9999999965656721,1.4858397434636995e-05,4.996700948774696e-05,3.583408240957823e-06,0.0002557694077486196,-0.001397218476415172,9.799868934210245
1687192971.6555362,-7.876425790547566e-05,1.6558320437146403e-08,2.57847583897842e-05,0.999999996565669,1.4840773346943407e-05,4.981154366312383e-05,3.458683901570571e-06,0.00024863038884792213,-0.0013958856243814675,9.799866066035833
1687192971.6655362,-7.87643529510845e-05,1.6394254635614423e-08,2.5784577769625758e-05,0.999999996565666,1.482079899684625e-05,4.966630214935077e-05,3.3433346911771095e-06,-1.0536226385241738e-06,-0.0015436688807953984,9.80000182461862
1687192971.6755362,-7.876444672352575e-05,1.623531950245113e-08,2.578439879028942e-05,0.9999999965656633,1.4800892329077352e-05,4.9521816795132414e-05,3.229102487951859e-06,0.00023402270607568828,-0.0013936402105190373,9.799859097818539
1687192971.6855361,-7.876453901486012e-05,1.6080153738334504e-08,2.5784221615470643e-05,0.9999999965656605,1.47810348330605e-05,4.937898170028552e-05,3.1162307467688677e-06,0.00022686496376107769,-0.0013925668616657557,9.79985579242198
1687192971.6955361,-7.876462984703811e-05,1.592855660931205e-08,2.5784046188445093e-05,0.9999999965656581,1.4761249391819492e-05,4.923794553852214e-05,3.004809934542973e-06,0.00021980872637436834,-0.001391537246992323,9.799852581164517
1687192971.7055361,-7.87647192428852e-05,1.578043638751846e-08,2.5783872435006424e-05,0.9999999965656554,1.4741549515436386e-05,4.909872794998545e-05,2.8948633724779787e-06,0.00021285565722156357,-0.0013905508863000793,9.799849461283197
1687192971.715536,-7.876480722545406e-05,1.563570837491645e-08,2.5783700294964223e-05,0.999999996565653,1.4721943936838653e-05,4.896132463532813e-05,2.7863923879634383e-06,0.00020600548400765426,-0.0013896064510707314,9.799846430154044
1687192971.725536,-7.876489381749828e-05,1.549428875447646e-08,2.5783529724206496e-05,0.9999999965656505,1.470243932141771e-05,4.882572295238221e-05,2.6793887426152442e-06,0.00019925715967415844,-0.0013887024923948795,9.799843485144926
1687192971.735536,-7.876497912284692e-05,1.5356673659780556e-08,2.5783359601280465e-05,0.9999999965656481,1.4688328532269573e-05,4.8672194065019016e-05,2.5524002304319094e-06,0.00019229868318346006,-0.0013877563287836858,9.799838987921147
1687192971.745536,-7.876506321789298e-05,1.522309921760099e-08,2.5783187343385004e-05,0.9999999965656461,1.467627881932494e-05,4.851373149101981e-05,2.4205008738898454e-06,0.00018550027180811089,-0.001386786349370788,9.799834012637282
1687192971.755536,-7.876514607660116e-05,1.509222971456148e-08,2.5783014675887906e-05,0.9999999965656439,1.4664347945533724e-05,4.8357802417725965e-05,2.2915333126258364e-06,0.00017883953751173746,-0.0013858531552188899,9.799829201355196
1687192971.765536,-7.876522785283676e-05,1.496383938008226e-08,2.5782844260157893e-05,0.9999999965656418,1.4652243554607962e-05,4.820475247526023e-05,2.164417450785921e-06,0.00017202750548824143,-0.0013850318829977987,9.799825985467303
1687192971.775536,-7.876530835044615e-05,1.4838447396678804e-08,2.578267585313161e-05,0.9999999965656398,1.4640295857782807e-05,4.8053758139594366e-05,2.0397219276091613e-06,0.0001653201800684194,-0.0013842855373013224,9.799822866250409
1687192971.785536,-7.876538757033745e-05,1.4715995090896763e-08,2.5782509332456634e-05,0.9999999965656379,1.462834961110662e-05,4.790489147713664e-05,1.9167561070090397e-06,-1.1522003912994496e-06,-0.0015437432109945133,9.800000575119233
1687192971.795536,-7.876546553587069e-05,1.4596384436270097e-08,2.578234458314152e-05,0.9999999965656361,1.4616413841005563e-05,4.775810277229426e-05,1.795500675523571e-06,0.00015220443840050564,-0.0013829243149102379,9.799816919558678
1687192971.805536,-7.876554407076806e-05,1.44600302068182e-08,2.5782193639159704e-05,0.9999999965656337,1.4605042323153598e-05,4.7616442798270015e-05,1.6718420634090636e-06,0.00014577107907159844,-0.0013822271676694065,9.799813955104955
1687192971.815536,-7.876562324225705e-05,1.430245312666129e-08,2.5782049990914157e-05,0.9999999965656311,1.4594572931484466e-05,4.7482391270153915e-05,1.5413982797170955e-06,0.00013957615367556452,-0.0013815091840488657,9.79981083342335
1687192971.825536,-7.876570114938502e-05,1.414759823182941e-08,2.5781901908918784e-05,0.9999999965656288,1.4583793624728869e-05,4.7352373566233736e-05,1.4137387100427425e-06,0.00013344342372780663,-0.001380837092775266,9.799807844149756
1687192971.8355362,-7.876577878028993e-05,1.401636923380402e-08,2.5781743230881386e-05,0.9999999965656268,1.4572226170034587e-05,4.721648807986908e-05,1.2944598601798456e-06,0.00012727866726342104,-0.0013802103369669931,9.799804953156945
1687192971.8455362,-7.87658549647203e-05,1.3889295772528969e-08,2.5781579890682798e-05,0.999999996565625,1.4560982934882823e-05,4.707933831708924e-05,1.1778606797737235e-06,0.00012143233023254048,-0.00137955063664566,9.799802116476952
1687192971.8555362,-7.87659299655019e-05,1.3764476599678637e-08,2.578141467615604e-05,0.9999999965656233,1.454985434381213e-05,4.694437986260107e-05,1.0636497755452323e-06,0.00011572643529382149,-0.0013789125199970946,9.799799291814978
1687192971.8655362,-7.876600382975461e-05,1.3642203849844371e-08,2.5781248644162137e-05,0.9999999965656219,1.4538820522621172e-05,4.681135791101723e-05,9.514279189304612e-07,0.00011011841510715449,-0.0013782945541216513,9.79979652379526
1687192971.8755362,-7.876607655917122e-05,1.3522610366056048e-08,2.578108242243267e-05,0.9999999965656204,1.4527835225421116e-05,4.668032380593768e-05,8.410235885725155e-07,0.00010459644059858783,-0.0013777005713585743,9.799793824748901
1687192971.8855362,-7.876614816304531e-05,1.340573524409394e-08,2.5780916473875397e-05,0.999999996565619,1.4516884855553603e-05,4.65511207581525e-05,7.323670034187341e-07,9.915747175331179e-05,-0.0013771313369695401,9.799791198156006
1687192971.8955362,-7.876621865342567e-05,1.3291587758271463e-08,2.5780751141425772e-05,0.9999999965656178,1.4505955685522958e-05,4.642369293108574e-05,6.254024041280529e-07,9.37994375211261e-05,-0.0013765881178050378,9.799788646187466
1687192971.9055362,-7.876628806510092e-05,1.3179739397379471e-08,2.5780587544456783e-05,0.9999999965656166,1.4494673934760639e-05,4.6287989366461776e-05,5.309984898467289e-07,8.883169906003772e-05,-0.0013760468376959366,9.799786103299734
1687192971.9155362,-7.876635642544562e-05,1.3070084600421089e-08,2.578042823429407e-05,0.9999999965656152,1.4483139218676785e-05,4.6150111535493566e-05,4.422077205956411e-07,8.39726436983105e-05,-0.0013755365674863588,9.799783635822617
1687192971.9255362,-7.87664236742542e-05,1.296356842003433e-08,2.578027228949472e-05,0.999999996565614,1.4471506619062081e-05,4.6013988730820234e-05,3.545107326548603e-07,7.918403756931035e-05,-0.0013750702966259232,9.79978127702821
1687192971.9355361,-7.876638002032261e-05,1.2765047217627488e-08,2.5780082445617818e-05,0.9999999965656224,1.4449680938930884e-05,4.5785212083956174e-05,2.0129016260274328e-07,7.241974916267272e-05,-0.0013732203504066157,9.79977812572569
1687192971.9455361,-7.876617344229125e-05,1.2383367828220341e-08,2.577973450370632e-05,0.9999999965656476,1.4394225680434442e-05,4.549313543486644e-05,-2.558398589805345e-08,6.217022691762138e-05,-0.001366402205474834,9.799771686978794
1687192971.9555361,-7.8765903271e-05,1.1891444639002383e-08,2.5779183001281743e-05,0.9999999965656831,1.4328741781141352e-05,4.520858581433292e-05,-2.640934844295374e-07,5.098022765106641e-05,-0.001357455764510693,9.799759008093538
1687192971.965536,-7.876559354725275e-05,1.132026140520722e-08,2.5778436726752922e-05,0.9999999965657268,1.4262265515078953e-05,4.492204094847012e-05,-5.087046691457761e-07,3.949464897637258e-05,-0.0013466386617617826,9.799742603037018
1687192971.975536,-7.876525005112241e-05,1.0681759942958522e-08,2.5777515584928766e-05,0.9999999965657776,1.419538419750118e-05,4.4633582657653724e-05,-7.574165644201643e-07,2.732124545397791e-05,-0.0013340964732002608,9.7997233398809
1687192971.985536,-7.87648790159585e-05,9.990210854405469e-09,2.5776437992522942e-05,0.9999999965658345,1.4145296059363033e-05,4.427574496485384e-05,-1.0745329118771101e-06,1.3417235329436538e-05,-0.0013192817332579171,9.799694818480983
1687192971.995536,-7.876448745097281e-05,9.208973989660016e-09,2.5775230185699098e-05,0.9999999965658966,1.4104775552813469e-05,4.38994705898678e-05,-1.4108799036909787e-06,-4.842301183776306e-07,-0.0013030854925295758,9.799661256119224
1687192972.005536,-7.876411549009349e-05,8.351040293177766e-09,2.577408216219033e-05,0.9999999965659553,1.4053067419515536e-05,4.3641870145686575e-05,-1.6614929310178474e-06,-1.2345514456724064e-05,-0.0012868366278188258,9.799630072349293
1687192972.015536,-7.87638205239218e-05,7.643860826486011e-09,2.5773120602615916e-05,0.9999999965660035,1.4003232536199055e-05,4.343893643454922e-05,-1.8586287017894355e-06,-2.371651406831257e-05,-0.001274335134312151,9.799604311552216
1687192972.025536,-7.876356609914327e-05,7.038958436710492e-09,2.5772318869234877e-05,0.9999999965660442,1.3957934727024098e-05,4.321976986210828e-05,-2.0551304853881147e-06,-3.4391153295205424e-05,-0.0012643012608500811,9.799582841505273
1687192972.035536,-7.87629717184257e-05,6.128575032413239e-09,2.5771536294521468e-05,0.999999996566111,1.3858864602076916e-05,4.2552135516917534e-05,-2.4927510038081142e-06,-5.213978032390783e-05,-0.001255237029345873,9.799556237438308
1687192972.045536,-7.876059546385987e-05,5.463551004934686e-09,2.5771131479306644e-05,0.9999999965663088,1.311272714831244e-05,4.085573654173851e-05,-2.9749578768924817e-06,-9.56199188069208e-05,-0.0012773997159623487,9.799580452200015
1687192972.055536,-7.875497779591753e-05,5.1405619393367184e-09,2.5771950569373622e-05,0.9999999965667301,1.1877949884421133e-05,3.614997367411314e-05,-4.337188140297526e-06,-0.00016680267597877756,-0.00136773325258659,9.799620105936196
1687192972.065536,-7.87655480658339e-05,-4.169417597924348e-09,2.5783596969475325e-05,0.9999999965655975,-2.021419303127893e-05,-4.9676423123558506e-05,-3.246509086836644e-06,-0.0011554624839689518,-0.0017116555802761143,9.79853022453536
1687192972.075536,-7.877311059187232e-05,-4.073205961982129e-09,2.5783681208783694e-05,0.9999999965649994,-1.57443592206997e-05,-4.4317356344727024e-05,3.50489511233098e-07,-2.521439329778566e-05,-0.001708089350264864,9.800227771912413
