time,orientation_x,orientation_y,orientation_z,orientation_w,angular_velocity_x,angular_velocity_y,angular_velocity_z,linear_acceleration_x,linear_acceleration_y,linear_acceleration_z
1686962234.455885,-0.00046206630902016776,-5.415853784399827e-06,0.00020285938195201277,0.999999872656725,-4.004830784956098e-05,-5.355342317479307e-06,1.1981360664965655e-05,5.794651076298936e-05,-0.010205159687566788,9.799321484834076
1686962234.5558848,-0.0004624945896474775,-5.374850645860454e-06,0.00020301836717444201,0.999999872426696,0.00010857138806835532,-5.86322360794444e-05,-3.891840687242701e-05,0.00030197712493622026,-0.011239162921381534,9.8019315276639
1686962234.655885,-0.0004628803131386901,-5.402793468534259e-06,0.0002033550579345557,0.9999998721796649,-6.142760452653156e-05,2.5946206570454653e-06,8.228518336998616e-06,-0.00022834324252706228,-0.008867839038986507,9.799243225188587
1686962234.755885,-0.00046330053538200033,-5.381098118087584e-06,0.0002035655868046223,0.9999998719423466,-0.00010000904402614719,4.9101679032194035e-05,-5.2017561743201326e-05,0.001783926657499066,-0.010850063891620895,9.797331232659088
1686962234.855885,-0.0004636898387616891,-5.409796185484741e-06,0.0002039049843195354,0.9999998716926043,-6.574028734664467e-05,6.7247286799895985e-06,7.048610506752692e-06,0.00030298898773684047,-0.009226712737939336,9.798727565214723
1686962234.955885,-0.0004640985126900831,-5.3954451824458636e-06,0.00020415972159119357,0.9999998714511257,1.8838827847901594e-05,-2.0423749375067947e-05,4.9036700140670486e-05,-0.001254052720845979,-0.007037360997190373,9.798525478307374
1686962235.0558848,-0.0004645440202136178,-5.390428472719757e-06,0.0002044512797181813,0.9999998711847271,-8.946189309830842e-05,2.6271490995176896e-05,-2.761444166454773e-05,-0.0001690170047134086,-0.008947546761120041,9.800236295934853
1686962235.155885,-0.0004648771209869334,-5.406523140872029e-06,0.00020467039101491026,0.9999998709850232,-6.629590656754954e-06,-3.390079005984956e-06,4.627063730209157e-05,-0.0007751854862389232,-0.00662173789493792,9.799501301886954
1686962235.255885,-0.0004652869510128846,-5.412065337394374e-06,0.0002049724709524646,0.9999998707325161,-4.335438311695602e-06,-1.2932473154445758e-05,4.322798180622434e-05,-0.0007916419607881427,-0.008931146378940205,9.799552005449318
1686962235.355885,-0.00046569370652281485,-5.412790370829808e-06,0.00020525896714799265,0.9999998704844066,-7.271186418022511e-06,-7.632247137232373e-06,4.119073036525318e-05,-0.00013130136040414604,-0.008482129692374175,9.799745543254359
1686962235.455885,-0.0004661561750371655,-5.383441041300007e-06,0.00020547075109925644,0.9999998702255964,-9.350466622726341e-05,4.671006601835143e-05,-5.561506108035774e-05,0.002049230137514988,-0.01080086385517442,9.79865128807043
1686962235.5558848,-0.00046655920422233616,-5.377454010316749e-06,0.0002057349477370572,0.9999998699833532,-7.677609241836586e-05,4.2956744749649456e-05,-5.01027640434369e-05,0.0009215036660643356,-0.009799992153074035,9.799232068577796
1686962235.655885,-0.0004669043844083681,-5.391241812255541e-06,0.00020598549122192907,0.9999998697705954,-1.3552472737568456e-05,-5.850552664417024e-06,3.7810961877987205e-05,-0.00015663196404002995,-0.008726320263005781,9.799704376869498
1686962235.755885,-0.00046732212659276117,-5.392827467504649e-06,0.00020626955885447515,0.9999998695168998,3.090022243583468e-06,-1.8856500874815375e-05,2.8280377490095142e-05,-0.00018895190658593566,-0.009729344379067775,9.800191458637183
1686962235.855885,-0.0004677028943113098,-5.41301151871155e-06,0.00020657731548946655,0.999999869275249,1.719095358889649e-05,-1.9421345651719157e-05,3.405159884706946e-05,-0.0006838802400443994,-0.009828900054624482,9.800172741254475
1686962235.955885,-0.0004681076992062343,-5.3903182745772494e-06,0.00020676982224909126,0.9999998690461751,2.319063146825082e-05,6.639924802719485e-06,-3.937365487588335e-05,0.0017218125665440156,-0.010840456015238012,9.799268319385714
1686962236.0558848,-0.0004685204315296841,-5.370916355965321e-06,0.00020699702265041697,0.999999868805987,-6.389034993981543e-05,3.463317994171585e-06,5.438992294657582e-06,-0.0008791779853243315,-0.008385147935695843,9.800949629623924
1686962236.155885,-0.0004689149087975129,-5.3789260344870826e-06,0.00020728910491671116,0.9999998685605426,-8.899488600282257e-06,1.5536679465856516e-05,-4.10984791079897e-05,0.0016800139477789018,-0.010402512679188684,9.79970604506204
1686962236.255885,-0.0004693337368002334,-5.393053030952849e-06,0.0002076127688760789,0.9999998682968396,1.1803540373960753e-05,-2.3005800515873703e-05,2.9025783561379847e-05,0.00020290039997838017,-0.009182517587769534,9.800336945390155
1686962236.355885,-0.000469686436256146,-5.407857677231537e-06,0.00020787382075828116,0.9999998680769321,-3.461107561820054e-06,-9.930827090007036e-06,4.433117815238378e-05,-0.0005643768716112486,-0.009642229340628198,9.800046677395693
1686962236.455885,-0.0004700949897114187,-5.406621030613247e-06,0.00020811867593211134,0.9999998678340343,1.3343860081534306e-06,-5.527602450375464e-06,4.754028895738103e-05,0.00027347708884055974,-0.009201740647668563,9.799921024781819
1686962236.5558848,-0.00047049719645167546,-5.399606919586387e-06,0.00020837735945116137,0.9999998675910454,-3.9486759409962195e-05,-3.5656677860150465e-06,1.0025137278761629e-05,-3.2089606881584873e-06,-0.009211952524902046,9.79931217457978
1686962236.655885,-0.0004708803675528594,-5.4023630765251e-06,0.00020864349177431295,0.999999867355185,-3.991412395475752e-06,-6.5881343443843596e-06,4.565837013632037e-05,0.00020970562876300588,-0.009000315565090618,9.800051589227818
1686962236.755885,-0.00047131119786800955,-5.398772033201863e-06,0.00020890732235236055,0.9999998670971607,-7.341275069522406e-05,1.0228452585422743e-05,-1.369043679557076e-05,0.000618615986211657,-0.009880365105719576,9.79888135590845
1686962236.855885,-0.00047173005697810627,-5.396494726518628e-06,0.00020920663609463004,0.9999998668370985,2.1017799125278885e-05,-1.9819277234583897e-05,4.719636919297096e-05,-0.0013341547761636311,-0.006498000884346321,9.800384025012098
1686962236.955885,-0.0004720831776128565,-5.400450595059598e-06,0.0002094060291970867,0.9999998666287029,4.567039841548736e-05,-4.008729693413886e-06,-5.041916963299963e-05,0.0008857846362186842,-0.009575456576808142,9.802264654022416
1686962237.0558848,-0.00047247056607423594,-5.399104838526139e-06,0.00020963602815061416,0.9999998663975658,-0.00010063992654462538,4.336826324665553e-05,-4.3447326049633337e-05,0.000549500392166016,-0.011812695913908825,9.796262793793915
1686962237.155885,-0.0004728766097707618,-5.416111081237545e-06,0.00020997264365481687,0.9999998661349244,-0.00010334083985355641,3.878002741905198e-05,-3.628852219327212e-05,-0.0008975103634499568,-0.008868363391686028,9.797415419389056
1686962237.255885,-0.00047336399058661304,-5.3642088873950096e-06,0.00021018333822800102,0.999999865860352,-8.362762123339687e-05,4.056890023720745e-05,-4.292583507593439e-05,0.0017677299660366344,-0.011481637275702138,9.796644519075135
1686962237.355885,-0.0004736793910746704,-5.417437019518279e-06,0.0002105058357671735,0.9999998656428805,-4.587667339142058e-07,-4.878599554525621e-06,4.611379395532065e-05,0.00024172131896567876,-0.00918465732427693,9.800115257909717
1686962237.455885,-0.00047411421030951295,-5.3935159767384065e-06,0.00021073576645426267,0.999999865388522,-9.286714549161264e-05,2.453014958455068e-05,-2.3752946596617594e-05,0.0015030141800569084,-0.011102180602951095,9.79761224891111
1686962237.5558848,-0.00047453538807561233,-5.397085925541257e-06,0.00021104610646387954,0.9999998651232798,-0.00010300864420104997,4.37251620590408e-05,-4.0734503145462956e-05,0.0011255442203356618,-0.010378629831267097,9.798118778250794
1686962237.655885,-0.0004749175912039045,-5.395091683923423e-06,0.00021127159818206266,0.9999998648942341,5.7522448702705094e-05,-6.106056235034403e-06,-5.6702678457013694e-05,0.0013197125130611493,-0.00975861519017154,9.799316611484882
1686962237.755885,-0.00047530494770093684,-5.41513761181593e-06,0.00021158962852220556,0.9999998646428468,-1.8654309586185228e-05,-1.5715623507126593e-05,5.690150314649425e-06,-0.0011993229579903334,-0.008010775066448473,9.80290180156816
1686962237.855885,-0.00047575320986632916,-5.377240083664826e-06,0.00021179689985663795,0.9999998643860116,-9.392303406683434e-05,4.684817650924997e-05,-5.195179139593338e-05,0.00012078538839970802,-0.00934385425685072,9.799706451006438
1686962237.955885,-0.00047608133637988656,-5.410764113031112e-06,0.0002120659776615148,0.9999998641726439,9.044639189311137e-05,-4.006400958986775e-05,-4.7440154315626805e-05,0.0011501096838471565,-0.009691254008109098,9.804189255184793
1686962238.0558848,-0.000476485458442026,-5.407445045607082e-06,0.00021236057133272647,0.9999998639176683,-2.127260358060372e-05,-8.827678844811146e-06,1.73342831323188e-05,-0.00011318529105123325,-0.009147866400212215,9.80065601052814
1686962238.155885,-0.0004769705178165802,-5.388353220686724e-06,0.00021262121352122067,0.9999998636311458,-7.036442209753643e-05,1.7364938847231903e-05,-1.8313307566089014e-05,0.0005429948580588391,-0.008688745337330736,9.801158192950263
1686962238.255885,-0.0004773194271856515,-5.404580793429149e-06,0.000212925408219331,0.9999998633998534,7.702145911385025e-06,-1.9237268391199706e-05,3.615094792402087e-05,-0.001201498860389901,-0.0077607776369983325,9.800934615404776
1686962238.355885,-0.00047773339782547513,-5.3820937701546705e-06,0.0002131345513849508,0.999999863157739,-5.103265057028952e-05,-2.0404343951277765e-06,8.446897365901722e-06,0.0001661531536528687,-0.009646116763837271,9.800215061688023
1686962238.455885,-0.00047812558798961867,-5.36056349371171e-06,0.00021338261057142526,0.9999998629175146,4.143661884537031e-06,-2.01134893144845e-05,5.3751923683731255e-05,-0.000168232950042771,-0.009597828670295155,9.800182264856712
1686962238.5558848,-0.0004785344008485732,-5.383252762248856e-06,0.0002136596378392411,0.9999998626626941,-0.00010015269983883045,4.1634661774028685e-05,-4.039486673543929e-05,-0.0003737090849452204,-0.00919716556842951,9.799340743479705
1686962238.655885,-0.00047889109335652944,-5.408739478060682e-06,0.00021392952359093294,0.9999998624341031,8.831152230375145e-05,-2.9759184598963015e-05,-5.4121362432971316e-05,0.00028490035038454954,-0.009677327626253852,9.801305497518664
1686962238.755885,-0.00047929345016618606,-5.401169126506962e-06,0.00021421944291076197,0.9999998621793136,8.546308217778839e-06,-1.980937475198986e-05,2.955608497114737e-05,-0.00045577061509656167,-0.010664587913027093,9.799827773571133
1686962238.855885,-0.00047968632328896797,-5.39689020633375e-06,0.00021444298598112088,0.9999998619430457,-4.822782568959899e-05,-4.6416317928668254e-06,9.563420473917418e-06,0.00025545088414524156,-0.009708526493688892,9.799739549805183
1686962238.955885,-0.0004800649383337701,-5.390575482427122e-06,0.0002146825107155969,0.9999998617099985,4.496435465757208e-06,-1.2891498670569667e-05,4.6977734679196434e-05,-0.0007704182628219871,-0.006962667264390656,9.79947707557023
1686962239.0558848,-0.00048050194889975064,-5.3791126560560906e-06,0.0002149681945181532,0.9999998614387993,2.8425513691277408e-05,-2.627089680044758e-05,5.028334782834643e-05,-0.0015088797025977591,-0.006696994752498965,9.800006914652604
1686962239.155885,-0.0004808860414914627,-5.38742365109339e-06,0.00021521616566410112,0.9999998612007868,-4.036780126573519e-06,1.703765265701097e-05,-4.271229817735428e-05,0.0017843837187491978,-0.010770367170624198,9.799632617333806
1686962239.255885,-0.0004812560328930604,-5.403847246613364e-06,0.00021548415671463598,0.9999998609649942,7.04107456244826e-05,-1.730177351764688e-05,-5.471216088084659e-05,0.0009783692027730332,-0.012198925915989027,9.800067325270776
1686962239.355885,-0.0004816659199546634,-5.403452134743106e-06,0.0002157807847124748,0.9999998607036888,-4.438507978120479e-05,-4.776126135667497e-06,8.607449899887096e-06,7.717326910370957e-05,-0.00949142414784864,9.799879281157958
1686962239.455885,-0.0004820447804644434,-5.405118594706457e-06,0.00021601556911754393,0.9999998604704344,5.1731156749662326e-05,-1.0875158859517419e-05,-4.279252028181275e-05,5.278398105351971e-05,-0.00947636211750272,9.8025355017384
1686962239.5558848,-0.0004824864114930577,-5.387629863869504e-06,0.00021627347269685638,0.9999998602018009,-2.44770549404845e-05,2.2873475062873777e-05,-4.353067365049278e-05,0.0017826533016482298,-0.01115838870783647,9.798225791867512
1686962239.655885,-0.00048285325193847593,-5.3999665672732295e-06,0.00021654968500292032,0.9999998599648959,5.099053219416783e-06,-6.903557286615215e-06,4.231768984414428e-05,0.00012745476755602003,-0.00957147060596688,9.800073364884701
1686962239.755885,-0.0004832570846186693,-5.404297276701963e-06,0.00021682362910825995,0.999999859710439,8.875622374401964e-05,-3.193109650983472e-05,-4.833853222196549e-05,-0.0002116828925109709,-0.009362621151069814,9.800142201316334
1686962239.855885,-0.0004836794577992038,-5.393897830096038e-06,0.00021708661134738126,0.9999998594492358,-3.105981409916837e-05,-8.951937964856764e-06,1.6873915273287752e-05,0.0008229075114235447,-0.010627718399754509,9.799184649309348
1686962239.955885,-0.0004841025549926797,-5.399204439222956e-06,0.00021738385991943354,0.9999998591799013,-9.216049366801383e-05,4.5264235350567945e-05,-5.54226178011593e-05,0.00039111929571103204,-0.009753102159874832,9.79983410114274
1686962240.0558848,-0.0004844401184793246,-5.418645708793525e-06,0.0002176666864944833,0.9999998589548018,-8.419232283934089e-06,-8.567907913756542e-06,4.4704844740122075e-05,-0.0005212155673016737,-0.00993113585435366,9.800010260938691
1686962240.155885,-0.00048485612466178576,-5.414085240318617e-06,0.00021789436983409474,0.999999858703625,-0.00010072008522633627,4.178368264650149e-05,-3.957607643081604e-05,-0.00017553844116905882,-0.009552681432009002,9.797976478514148
1686962240.255885,-0.00048529073407328614,-5.3902487605292765e-06,0.00021815563457267488,0.9999998584359739,-9.676204878321559e-05,3.453293574628533e-05,-3.416378786745051e-05,0.0013655923871193864,-0.010745341236195043,9.797918189276407
1686962240.355885,-0.00048568976075063624,-5.388382724039483e-06,0.00021839854519669532,0.9999998581892386,-5.274974758446336e-06,1.8754192233560667e-05,-5.3451495507162354e-05,0.0014111391079982805,-0.01056824913825277,9.800400281317845
1686962240.455885,-0.00048604712016685474,-5.3899353667881544e-06,0.00021864580794088846,0.999999857961568,2.283478093735329e-05,4.15131964960645e-06,-3.8219901965085826e-05,0.0008625089977079963,-0.01087564973473918,9.799288901026294
1686962240.5558848,-0.00048642335394043115,-5.399843299035394e-06,0.00021892804183752394,0.9999998577168273,-9.971373455562971e-07,-5.342195233955471e-06,4.341807339670948e-05,-0.00026272512881221356,-0.008112344839905018,9.800897968476912
1686962240.655885,-0.00048681009753497495,-5.4121360949247585e-06,0.00021921726906580592,0.9999998574652031,-1.1429547313576483e-05,-1.2476719886003409e-05,1.989029052315817e-05,-0.0001290019807096412,-0.009356431763374164,9.800797561241144
1686962240.755885,-0.00048722818318453376,-5.399122830587088e-06,0.00021947372710750404,0.999999857205405,1.6249785761511805e-05,-1.9853272897380154e-05,4.686689525045527e-05,-0.0003951832850945007,-0.009720639014592393,9.800230970185448
1686962240.855885,-0.000487606222927556,-5.41486177781388e-06,0.00021973030882116014,0.9999998569647108,-8.719538211565897e-07,-3.6597344135541735e-06,4.7292985619588475e-05,0.00019796087030580294,-0.0094172228316425,9.800074862498153
1686962240.955885,-0.0004880317758761864,-5.400186725606789e-06,0.00022000615065398903,0.9999998566965486,-4.726619412672735e-05,-4.92182107165031e-06,1.4555392499028095e-05,0.000472038865464791,-0.01035615439743705,9.798983989301215
1686962241.0558848,-0.0004884137518416793,-5.403925521192247e-06,0.00022025539676840894,0.9999998564551722,-1.1495622518559373e-05,-6.007371978741451e-06,4.113078043103287e-05,-0.00041007272430088624,-0.010538926464148534,9.799458774334154
1686962241.155885,-0.0004888501182857396,-5.383945830763322e-06,0.00022048594309079833,0.9999998561912516,9.38152941537635e-05,-2.9655451289264486e-05,-3.5457652763851194e-05,0.0019649937390247116,-0.011847572828826,9.800854345838586
1686962241.255885,-0.0004891966552287933,-5.412236381653281e-06,0.00022079859954728432,0.9999998559526491,-8.169335565645503e-06,-8.348146887754935e-06,4.144606350628816e-05,4.282804715781729e-05,-0.009306933146231985,9.799709216905194
1686962241.355885,-0.0004897131794840932,-5.34302284295792e-06,0.0002209737321459863,0.9999998556615215,-7.482817889810223e-05,4.3219431876679276e-05,-4.079818518359542e-05,0.00035782341861469044,-0.009272781566952316,9.79609603647395
1686962241.455885,-0.0004899916248844752,-5.41970181566135e-06,0.00022133968489057747,0.9999998554437787,-4.351477597746669e-06,-1.5206231389233374e-05,4.25412355257622e-05,-3.539882994966527e-06,-0.00882844574680796,9.800811841964
1686962241.5558848,-0.0004903801970741139,-5.409063145807183e-06,0.00022158082582483734,0.9999998551999605,-5.238364823245514e-06,-1.4139138194904718e-05,4.119401132327218e-05,-0.0010694436947538061,-0.01033653472179218,9.799893173454704
1686962241.655885,-0.0004907969991183085,-5.420529721396422e-06,0.0002218345881361536,0.9999998549391591,9.326675391494986e-05,-3.754377378656953e-05,-5.2980749381246406e-05,0.0006241177109810201,-0.009675176034430445,9.800090706328623
1686962241.755885,-0.0004912367425866232,-5.400224167867004e-06,0.0002221117308000165,0.9999998546618293,-0.00010083852514998932,4.494817879770923e-05,-4.317098569383519e-05,0.0013970776072992344,-0.011033123848412287,9.798110403169055
1686962241.855885,-0.0004915933966184862,-5.414662237478142e-06,0.00022234117013605979,0.9999998544354983,8.986676755351476e-05,-3.290904776749594e-05,-5.368627704410017e-05,0.0014394362084147474,-0.009907549318857081,9.800467062062781
1686962241.955885,-0.0004920060237137455,-5.413016309445819e-06,0.0002226412396483635,0.9999998541658145,-5.8532022478853585e-05,2.6468319866356707e-06,9.949761032348934e-06,0.0006174034362236556,-0.009942262388875049,9.798502044544774
1686962242.0558848,-0.000492400150683947,-5.412643330931144e-06,0.00022291806969699227,0.9999998539101539,-3.334337760361586e-05,-9.365038956951572e-06,1.355291033000741e-05,0.0002298412525891036,-0.009879739801990419,9.800115113369941
1686962242.155885,-0.0004928244106914834,-5.402660523085969e-06,0.0002231704991540379,0.9999998536449093,-9.270144709570393e-06,1.8891725060797646e-05,-4.407520768110957e-05,0.0013594927632627062,-0.010730475322330998,9.798745118074214
1686962242.255885,-0.0004931922992856081,-5.415804632985856e-06,0.00022343967101266262,0.9999998534033585,-6.721710432352314e-06,-2.8503626469584556e-06,4.306496001146667e-05,0.000751794593835413,-0.00933847106724766,9.799667313784695
1686962242.355885,-0.0004936078209559452,-5.405345797038745e-06,0.00022368341234152553,0.9999998531439055,8.288566576213714e-05,-2.7166530292240248e-05,-5.022476494886648e-05,-0.00014263224436333167,-0.0099904142517779,9.8024387533529
1686962242.455885,-0.0004940951028051817,-5.371730835376851e-06,0.0002239477165051178,0.9999998528442864,-8.087631941437391e-05,2.826290126501726e-05,-2.61250300943148e-05,0.00020436105952062418,-0.009180187206518056,9.79868810053199
1686962242.5558848,-0.000494401056878482,-5.4071300889039885e-06,0.00022424824539031104,0.9999998526255304,-4.453042602763331e-06,-1.072413200783084e-05,4.309653774535435e-05,-0.0006106283324046456,-0.010115607571461956,9.800051366334328
1686962242.655885,-0.0004947813460769792,-5.405490406926817e-06,0.0002244459656613297,0.9999998523930935,9.316946987113015e-05,-4.076192462541407e-05,-4.719090795221483e-05,0.00011920516649763821,-0.009958717043459802,9.803183033514363
1686962242.755885,-0.0004951909208623296,-5.397366068603618e-06,0.00022472769139444227,0.9999998521271317,-1.4948027161461863e-05,-6.430192725512661e-06,3.843991615607517e-05,-0.0003630510938129829,-0.008614611729722723,9.800227688833
1686962242.855885,-0.0004955843802009514,-5.411795860087484e-06,0.00022503479320465204,0.9999998518630773,-5.5106943562664644e-05,1.0889524225736707e-06,9.593984648128377e-06,0.00032661281520630865,-0.009824583006618136,9.79895410867723
1686962242.955885,-0.0004960020816289371,-5.376198886041027e-06,0.00022524998178416903,0.9999998516077275,6.741506674383316e-07,-1.7397620915881275e-05,4.348425381150354e-05,-0.000844391501261573,-0.010000820366919247,9.800308416317533
1686962243.0558848,-0.0004963725888726621,-5.3761768619969875e-06,0.0002254994162117758,0.9999998513676706,-8.671857101959509e-06,-1.0722062877277796e-05,4.2238686126123945e-05,-0.0007409349239155624,-0.00858411874463499,9.800576224232772
1686962243.155885,-0.0004967375838530236,-5.4045357031128274e-06,0.000225743217631489,0.9999998511312708,9.432516451951862e-05,-4.410381883675537e-05,-4.736063298692098e-05,0.0020806967580329462,-0.011219649589763864,9.802282402744725
1686962243.255885,-0.0004971254007485282,-5.411485801078685e-06,0.00022607069563652493,0.999999850864535,-7.173038876057603e-06,-1.2300567954427792e-05,4.104624024827003e-05,-0.0010115095927568632,-0.010378734428338813,9.79980828391507
1686962243.355885,-0.0004975545166032756,-5.385234593705383e-06,0.00022628249424201723,0.9999998506033565,2.2557397723612495e-05,-2.227560231058662e-05,4.896604001188342e-05,-0.0009193008314655164,-0.007809316304389203,9.802537873061857
1686962243.455885,-0.000497942831684314,-5.3789670742747354e-06,0.0002265271157806664,0.9999998503547233,2.0952702262932672e-06,-8.534838511372934e-07,5.4019505645691326e-05,7.881674542728508e-05,-0.009834690632586227,9.800015212368827
1686962243.5558848,-0.0004983157472693105,-5.419523162607358e-06,0.00022687427987774377,0.9999998500900418,-3.301841399614925e-05,-7.645882605122826e-06,1.589313325587198e-05,0.00015527647486368877,-0.010583243183745566,9.799592359145516
1686962243.655885,-0.0004987011716816175,-5.403313402407118e-06,0.00022708972867030233,0.9999998498490892,-1.3265192283565717e-05,-7.644692737409069e-06,4.180078832459824e-05,-0.0005662851851306477,-0.010385894653958777,9.799845296244305
1686962243.755885,-0.0004991337767532088,-5.393471887506379e-06,0.00022734551464820787,0.9999998495751888,-2.8763670488476787e-05,-1.1394348855554629e-05,1.789932014767832e-05,0.000779095101386255,-0.010888953338085018,9.79932456755623
1686962243.855885,-0.000499490220965455,-5.398931145262431e-06,0.00022760803089330416,0.9999998493374662,-7.476704144452747e-06,-5.276274310420453e-06,4.2875764617050114e-05,0.00011866790882941691,-0.009724391860301058,9.800011486357839
1686962243.955885,-0.0004999016139185184,-5.411587479615638e-06,0.00022792508713299185,0.9999998490596115,1.770968258715914e-05,-2.1496679475409198e-05,4.8964901326586386e-05,-0.00037128641261887133,-0.009939243894873783,9.800262223885834
1686962244.0558848,-0.0005003341183611492,-5.395257774534129e-06,0.00022816116708988395,0.9999998487895602,-9.943865064791728e-05,4.4971706578565914e-05,-4.350366391523988e-05,-2.041779159786155e-05,-0.009535431888248826,9.79939809421608
1686962244.155885,-0.0005007234704880231,-5.399328884882641e-06,0.00022840761484636075,0.999999848538396,-9.184205075300584e-05,3.518996653780554e-05,-4.402450826438253e-05,0.001744965925568778,-0.011142529230429733,9.797483430720984
1686962244.255885,-0.0005010602704645456,-5.413125759900273e-06,0.0002286644086557412,0.9999998483109345,-1.7133445843296558e-06,-2.886851610560262e-06,4.609636400570663e-05,0.00022889418138761068,-0.009666590436652231,9.800078684540964
1686962244.355885,-0.0005014775763209928,-5.398341261608213e-06,0.00022894446542597876,0.9999998480377535,1.4351716942694938e-05,-2.0860774794809813e-05,4.852136052343882e-05,-0.0008619756343859698,-0.007494467901875218,9.800524100831707
1686962244.455885,-0.0005019129430748172,-5.39343994516815e-06,0.00022920571618433415,0.9999998477595125,-4.3920046968185187e-05,-3.5266474055397355e-06,1.3361735031791178e-05,0.00013427335473305258,-0.009758036790800537,9.80049753344772
1686962244.5558848,-0.0005023211269822667,-5.3813132769766975e-06,0.00022946177851766128,0.9999998474958981,2.9045087178113663e-05,-2.087055070132012e-05,4.533700596532108e-05,0.0004485134666095019,-0.008785049991706763,9.801006105136002
1686962244.655885,-0.0005026340907072265,-5.412213299848916e-06,0.00022973285280437057,0.999999847276236,-5.17449619357348e-06,-7.060215641329668e-06,4.553901500151055e-05,0.00013936770374731988,-0.009652938045795376,9.800066810328623
1686962244.755885,-0.0005030126141808577,-5.411823710048988e-06,0.00022998079274779565,0.9999998470289169,-6.027449283459139e-06,-5.678685851404644e-06,4.216989712628701e-05,7.448021497991636e-05,-0.0090670285663816,9.799749403338302
1686962244.855885,-0.0005034435148726919,-5.398793812841419e-06,0.00023024151040049802,0.9999998467521518,1.6446415855430927e-05,-1.719208621010562e-05,4.684981435427912e-05,-0.0007510339422889873,-0.0074634909830391845,9.799831998361265
1686962244.955885,-0.0005037991725431738,-5.4208768530588085e-06,0.0002305320600517434,0.9999998465059768,-4.692547335288033e-06,-1.0392881529749355e-05,4.4615435239028546e-05,-0.000644873121531158,-0.010267461946385224,9.800034531508336
1686962245.0558848,-0.000504210814992911,-5.414958278110693e-06,0.00023079481346913492,0.9999998462379315,4.123027952387714e-06,-1.1994037176882167e-05,4.4880389660082816e-05,-0.0013943946935312435,-0.007043718900981053,9.799273723446037
1686962245.155885,-0.000504635470941478,-5.396877107186873e-06,0.00023103668822856455,0.9999998459679701,1.8846373549108975e-05,-1.9874904882343324e-05,4.8264345198863564e-05,-0.0007722253996559274,-0.007308213865301479,9.799866730033921
1686962245.255885,-0.000505022013731158,-5.421948786161721e-06,0.00023136141260189218,0.9999998456976207,1.1717050669429212e-05,-2.0484648470277237e-05,2.8241359840025266e-05,3.775920931687323e-05,-0.010184198923594524,9.800220983914464
1686962245.355885,-0.000505403992525413,-5.413921609618568e-06,0.00023158960578505635,0.9999998454518622,-4.048659881923467e-06,-7.349654631521313e-06,4.6879036324972594e-05,0.0005094451994092221,-0.009735421219812995,9.799824686126373
1686962245.455885,-0.0005057984402488424,-5.399118845618207e-06,0.00023181695317509184,0.9999998451998318,1.103949292125018e-05,-1.902514648399198e-05,4.852828345437276e-05,-0.0014753036940459725,-0.00803093718902204,9.799139840570037
1686962245.5558848,-0.0005062112485376748,-5.400296165646132e-06,0.00023208727413572154,0.999999844928241,2.333310511492917e-05,-2.1966890741446984e-05,4.9094229680115016e-05,-0.00033429051958810464,-0.008781923674749354,9.800912896000844
1686962245.655885,-0.0005065875850861575,-5.414506205650106e-06,0.00023237717680188975,0.9999998446702628,1.0459295013044571e-05,-2.158717576835305e-05,2.759774464669484e-05,-0.00040190742742407846,-0.010510951172249629,9.80004960995675
1686962245.755885,-0.0005069635679662894,-5.418214477272946e-06,0.00023261464849814098,0.9999998444244925,-6.700697981896145e-06,-2.1834223114474183e-06,4.320921158958734e-05,0.0007220133992524878,-0.009585428221835921,9.79964390526134
1686962245.855885,-0.0005073612305340133,-5.4256641797048265e-06,0.00023287276787458061,0.9999998441626968,8.901248220864675e-05,-3.933668962921672e-05,-4.9280755071555034e-05,0.0011724441466808057,-0.012632317352001697,9.800973778519573
1686962245.955885,-0.000507761695018937,-5.416058508241986e-06,0.00023310052081185637,0.9999998439064252,-9.191245445416779e-05,3.936180916545643e-05,-4.9032290217785406e-05,-0.0006510579973628009,-0.010136010261493845,9.797197320040425
1686962246.0558848,-0.0005082067169194673,-5.36356242689344e-06,0.00023329987346345048,0.999999843634155,0.00012994594992979386,-5.784747481392741e-05,-2.208158621660155e-05,-0.0006470810884724647,-0.00905856126272826,9.801582338193663
1686962246.155885,-0.0005085456303382197,-5.422227433098658e-06,0.0002336573153897112,0.9999998433780879,7.458078630522814e-05,-2.314112869805951e-05,-5.0192034131100144e-05,0.0009535681785170714,-0.010397972599382794,9.803576105035075
1686962246.255885,-0.0005089830310598672,-5.3892768827471745e-06,0.0002338802861872717,0.9999998431036085,-9.631217000622005e-05,4.559072856042147e-05,-5.1014974125453136e-05,0.00024990896477423513,-0.010103503603502071,9.799971004097129
1686962246.355885,-0.0005093330311082964,-5.417254861074344e-06,0.00023420393627512548,0.9999998428495043,1.0802168352355197e-05,-1.550226821432356e-05,4.6509183861326295e-05,-0.0002491651209474091,-0.010020283119987204,9.800084576993639
1686962246.455885,-0.0005097823110920321,-5.401298488553126e-06,0.00023443424030938646,0.9999998425666917,-8.951533484653453e-05,3.402679553546616e-05,-3.676627816073985e-05,0.0006766396036329217,-0.012752043211393128,9.797289996507471
1686962246.5558848,-0.0005101157571853937,-5.421223924024095e-06,0.0002347324392455206,0.9999998423265909,-8.496201145312774e-06,-1.0833953154958208e-05,4.8469954224194906e-05,-0.0006339180029402645,-0.010386339734512256,9.800083411750352
1686962246.655885,-0.0005105247012727293,-5.4400097245019396e-06,0.00023504176186201468,0.9999998420451405,2.298146752310401e-06,-8.246519731515434e-06,4.378492550371635e-05,0.00016143125341663852,-0.00925757650971845,9.800036973122124
1686962246.755885,-0.000510943024748254,-5.423515149334468e-06,0.0002352471462550569,0.9999998417832833,9.334092928692944e-05,-4.1031375590060234e-05,-4.7950761180324866e-05,0.0012576488364664377,-0.011148032384834047,9.80282146028316
1686962246.855885,-0.0005113657905462238,-5.410650921209565e-06,0.00023553781985515525,0.9999998414988317,-2.606405954564456e-05,-1.4071851759990431e-05,1.3873602764816578e-05,-0.0016760142552739734,-0.008505431251204074,9.802519735356864
1686962246.955885,-0.0005118018901472631,-5.388488755579307e-06,0.00023573827888769,0.9999998412286142,-6.624329590461915e-05,1.1690388217025536e-05,-9.804850133722116e-06,-0.00015049207539464182,-0.00915541393889223,9.799436877732237
1686962247.0558848,-0.0005121547660598096,-5.429675623975265e-06,0.0002360720889280226,0.9999998409689789,5.2089809567863975e-05,-7.89766355287486e-07,-5.769149899252977e-05,0.002371882089804663,-0.012563022952783777,9.799644653616202
1686962247.155885,-0.0005125885095398445,-5.410151801631884e-06,0.00023633421931081445,0.9999998406849309,-0.00010057284273680152,4.061413137019826e-05,-3.710994238379223e-05,-0.0002549657924181785,-0.009736804771520847,9.799263210996216
1686962247.255885,-0.0005130129174877427,-5.3815418383026665e-06,0.00023654931570325663,0.9999998404165907,-4.56919760880978e-05,-2.052863370476426e-06,-1.9591873016866517e-06,-0.0009388651031116527,-0.008701413797612016,9.798433063078395
1686962247.355885,-0.0005134748678059404,-5.351235311738784e-06,0.00023680169125780024,0.999999840119929,-6.663939046652125e-05,3.9781184125869056e-05,-3.6987795686693356e-05,0.00012704624968475387,-0.009376181130655702,9.796672351404172
1686962247.455885,-0.000513729414495931,-5.424028015829218e-06,0.00023713115172373128,0.99999983991073,-3.299439426920741e-05,-7.4363606963195646e-06,1.668468548996723e-05,0.0002577537244693247,-0.010789363456522132,9.799584848441064
1686962247.5558848,-0.0005141472157401493,-5.396187392167037e-06,0.00023735552511948923,0.9999998396429255,-4.607587880913393e-05,-7.047702148416925e-06,1.451719902163402e-05,0.00046141849186381227,-0.010900942802963734,9.799019647331182
1686962247.655885,-0.0005145032838490436,-5.4078692820433305e-06,0.0002376134416858381,0.9999998393984763,-1.6297679978371773e-05,-7.619748454804583e-06,3.8129862013902526e-05,-6.19380275934803e-05,-0.00968685134450919,9.799703155223394
1686962247.755885,-0.0005149061494956371,-5.390247048733914e-06,0.00023784041119166713,0.9999998391372577,8.538115837352648e-05,-3.744073167071024e-05,-3.8294951086583516e-05,-0.0008799592637338568,-0.009709642221712148,9.800034100467496
1686962247.855885,-0.0005153123049531464,-5.412030895567118e-06,0.00023818640776710617,0.9999998388455736,1.7272458278207344e-05,-2.0809782590099424e-05,4.7795874538553126e-05,-0.0007658775466549157,-0.0102312117433501,9.80028524862861
1686962247.955885,-0.0005156773958939224,-5.413501187580725e-06,0.0002384137715603755,0.9999998386031824,-1.2733174671957298e-05,-7.816308966812356e-06,4.131807881252319e-05,0.00020301391172708317,-0.010181112466928993,9.799796081499458
1686962248.0558848,-0.0005160982436298142,-5.4155330896254035e-06,0.00023872382952018804,0.999999838312091,8.993395886067963e-06,-2.2127757937234313e-05,2.7746289510106625e-05,-5.5316484237749545e-05,-0.010523611736560183,9.800264438567291
1686962248.155885,-0.0005164813779177783,-5.4108871819548155e-06,0.0002389162401504234,0.9999998380683564,9.213675548956506e-05,-4.043472181317057e-05,-4.7909065474854025e-05,0.0015455881427760697,-0.012849941526291188,9.800951067883679
1686962248.255885,-0.0005169212687185451,-5.393056467910667e-06,0.00023919588593604394,0.9999998377743095,-9.964260189037865e-05,4.442408193241661e-05,-4.2871937073639506e-05,0.0013809520476281987,-0.011487983470507564,9.798101672747206
1686962248.355885,-0.0005172992544170509,-5.408300261259506e-06,0.00023948134662148273,0.9999998375104451,-7.460815051277478e-05,9.583823083241335e-06,-1.2349333551183123e-05,0.0007145754904953326,-0.011359763259588498,9.798550570005466
1686962248.455885,-0.0005176891314944791,-5.389223930881457e-06,0.00023971660884180922,0.9999998372524201,-2.7188155152389527e-05,-1.4478538683466153e-05,1.2485918241808702e-05,-0.0001767736652091422,-0.010098601734944526,9.799965699766064
1686962248.5558848,-0.0005180598304766821,-5.397953811496782e-06,0.00023998696952604945,0.9999998369955511,1.147585512347556e-05,-2.3233057274139413e-05,2.8639106333896886e-05,-0.0005749702018729347,-0.010375382642026571,9.799877093290096
1686962248.655885,-0.0005184663121969906,-5.3769778471617114e-06,0.00024021218707080422,0.999999836730925,-8.251880757098187e-06,-1.4212612524905053e-05,4.10940767468485e-05,-0.0031265852526562526,-0.007613994988479202,9.798593987075265
1686962248.755885,-0.0005188130635149904,-5.413812180625819e-06,0.00024053196779861563,0.9999998364740208,-2.3782021060237108e-05,-9.696477517494467e-06,1.7554230698860912e-05,-6.78021221819438e-05,-0.010127277079155176,9.8006086770039
1686962248.855885,-0.0005192310965475321,-5.384202394998153e-06,0.00024074118129567505,0.9999998362068679,2.2999269846150092e-05,-2.1616923557796393e-05,4.849816433277787e-05,-0.0008337935367293017,-0.007996109404186161,9.802865360807031
1686962248.955885,-0.0005195763749002566,-5.3946563339981784e-06,0.0002410030101287431,0.9999998359644054,-3.2204039672889808e-06,-8.70526809272625e-06,4.211345118640935e-05,0.0001580287551492302,-0.010044848136025394,9.800089899972072
1686962249.0558848,-0.0005199504971461288,-5.402568953659854e-06,0.00024127293667836346,0.9999998357048179,5.12257477434931e-06,-1.3909358305796449e-05,4.4423691608062254e-05,-0.0005278214367700077,-0.010692667299971044,9.79992953212746
1686962249.155885,-0.0005203348411926237,-5.389377605293033e-06,0.00024150799720225877,0.999999835448234,8.334269636174781e-07,-7.614662941406765e-06,5.1092500704667044e-05,6.656583774341646e-05,-0.00995164109376575,9.80008497662758
1686962249.255885,-0.0005207419887559571,-5.402517010972429e-06,0.00024181871224819538,0.9999998351611386,1.8087808415915754e-05,-2.195193331611472e-05,4.9069729306323544e-05,-0.0003589397838269145,-0.01037668534433197,9.800258192235924
1686962249.355885,-0.0005211335746340994,-5.413889249593383e-06,0.00024208843285647522,0.9999998348918252,-3.4682091275912865e-05,-9.566300004892723e-06,1.3381888440370717e-07,0.00031248711003573553,-0.010567364007727807,9.799883425758212
1686962249.455885,-0.0005215021329785712,-5.398198753879089e-06,0.00024231850839283377,0.999999834644049,1.1539425572297909e-05,-1.9390958448509332e-05,4.8258605229819316e-05,-0.0006580505410624664,-0.010419402870330847,9.800106159087553
1686962249.5558848,-0.0005219475536432891,-5.380716457746979e-06,0.00024255953581811345,0.9999998343533217,-6.333037178102309e-05,3.595556806143694e-05,-4.648474677365725e-05,0.0012399328843268138,-0.012079933828704226,9.796964697847773
1686962249.655885,-0.0005223006741869184,-5.3826067827651665e-06,0.000242845803368869,0.9999998340994607,1.469168346226682e-05,-2.228174981970169e-05,5.4902847253129726e-05,-0.0007304178994032821,-0.010474383151572042,9.800377061201473
1686962249.755885,-0.0005226782350155388,-5.422274204661161e-06,0.0002431552714900541,0.999999833826774,-2.1419405148715852e-05,-1.6851721719145376e-05,5.251453381909894e-06,0.0003656106285160618,-0.01045621405223569,9.800367672051921
1686962249.855885,-0.0005230722929435298,-5.399937346550863e-06,0.00024338638838841876,0.9999998335646276,1.2603169536499217e-05,-1.883204595392213e-05,4.6561201420819155e-05,-0.0009386380908812981,-0.010603184062913074,9.800042108560854
1686962249.955885,-0.0005234575309632233,-5.415445802337632e-06,0.0002436569601742972,0.9999998332970722,-5.235233820094347e-06,-1.90100170101604e-05,8.211853444053814e-06,-0.00023514740517037897,-0.011894460959744564,9.7996057010827
1686962250.0558848,-0.0005238713310248772,-5.405567641573559e-06,0.00024391672573523994,0.9999998330171058,-2.5137671630121683e-05,-1.0728518089094283e-05,1.703086127509484e-05,-0.00045619673951038096,-0.009641652487326765,9.801237420351615
1686962250.155885,-0.0005242121977017469,-5.4037312703604665e-06,0.0002441538659620276,0.9999998327806168,-9.089508411492848e-06,-6.54804410140657e-06,4.2744287688250524e-05,0.0001210978478577824,-0.010185815271096087,9.800013421773803
1686962250.255885,-0.0005246166126452698,-5.41452103699679e-06,0.0002444235048040591,0.9999998325026076,5.581423013317131e-05,-9.069461676002963e-06,-5.0355452817397736e-05,0.0006098583116573028,-0.010692680695827704,9.80126914099507
1686962250.355885,-0.0005250103845130838,-5.404406418832301e-06,0.00024468219269716907,0.9999998322327426,-6.178757574072094e-05,5.489812009640006e-07,6.656647188832673e-06,-2.2254213315554572e-05,-0.010154112988106902,9.798968786023734
1686962250.455885,-0.000525408200318558,-5.391570894288424e-06,0.00024492784764445943,0.9999998319637378,1.0237167561361403e-05,5.989404577684157e-06,-3.79665834811026e-05,0.000711998737400968,-0.010672261048511386,9.80124079848632
1686962250.5558848,-0.0005257643882384337,-5.402980878780423e-06,0.00024515350555431186,0.9999998317211732,9.23271934529521e-05,-4.265532994773189e-05,-4.7655005945414825e-05,0.0009814198330748228,-0.010545207145287859,9.804269500273458
1686962250.655885,-0.0005261679057297655,-5.4158364532938144e-06,0.00024548294276009497,0.99999983142805,-1.0014385779769765e-05,-1.8258673546981603e-05,7.321170663424377e-06,0.0008518444816746039,-0.011562631502286891,9.799053659809104
1686962250.755885,-0.0005265727820473328,-5.405290693530573e-06,0.00024577042471196517,0.9999998311443788,1.909994085008791e-05,-2.2692201000867062e-05,4.842943472851717e-05,-0.0006653953079457353,-0.010509730490931093,9.800303235599838
1686962250.855885,-0.0005269314693426602,-5.4120587651264955e-06,0.0002459662023993093,0.9999998309072675,8.720814978488454e-05,-3.4200054549101636e-05,-4.7735048579255876e-05,0.0007459022892565925,-0.010731842150826992,9.802386877927585
1686962250.955885,-0.000527329291935585,-5.418853047366453e-06,0.000246291846428267,0.9999998306173759,-9.533059235316254e-06,-1.5618211170247828e-05,2.08724426731006e-05,9.8135719368845e-05,-0.011053612522365603,9.800071916158085
1686962251.0558848,-0.0005277654532596596,-5.394304000856522e-06,0.0002465364805006675,0.9999998303271316,1.7841441442722374e-05,-8.74383838988845e-06,4.513782779832328e-05,0.0006769375559039838,-0.00868822515376522,9.800514623397799
1686962251.155885,-0.000528090072658844,-5.392621007108241e-06,0.00024671095961384333,0.9999998301127343,5.585579936192577e-05,-1.483717834231337e-05,-3.709360955472664e-05,0.0008527023477375431,-0.011832265960748623,9.799770285948696
1686962251.255885,-0.0005284994959078266,-5.405039457651308e-06,0.0002470390989768412,0.9999998298153616,-4.52981076232421e-05,-2.478433642729456e-06,1.2114411596970378e-05,0.0004854851183164189,-0.011206956226329183,9.798975552171946
1686962251.355885,-0.0005288512577768923,-5.400391039674954e-06,0.0002472645569619433,0.9999998295736965,-7.203976899551404e-06,-3.71879892690481e-06,4.054766954263338e-05,0.0006221874805919262,-0.010257781523877619,9.799757955054226
1686962251.455885,-0.0005292996856720139,-5.3815245113125735e-06,0.00024752717849735946,0.9999998292715744,-5.973550221972795e-05,3.515299083586062e-05,-4.615164800323532e-05,0.0017543303216608647,-0.011777615551808968,9.798536179788654
1686962251.5558848,-0.0005296304769391504,-5.406946597268685e-06,0.00024780612097125856,0.99999982902721,5.191486690324647e-06,-8.332306689173858e-06,4.6867475561652826e-05,-0.00041554903336146184,-0.007766503159429719,9.799874380281832
1686962251.655885,-0.0005300215069962049,-5.417170577451378e-06,0.00024811276292954163,0.9999998287439421,-9.422951951712447e-06,-1.8331325979853866e-05,2.0565762803771778e-05,-0.0001277044801706583,-0.011059573093755087,9.79999560929554
1686962251.755885,-0.0005304484632771031,-5.404402423972258e-06,0.00024835101681363307,0.9999998284584818,-5.0277693300788456e-05,-1.4239054527536047e-06,7.97760460065634e-06,-0.0013242146527595049,-0.008869932107614898,9.80211596450645
1686962251.855885,-0.0005307718590039055,-5.401021272178364e-06,0.0002485612994025338,0.9999998282346568,-9.777976466006617e-06,-3.9017283373684645e-06,4.63896049926275e-05,-0.0004612829862246756,-0.007867732708875709,9.799658438379982
1686962251.955885,-0.0005311851485998437,-5.391806100320202e-06,0.0002488459580922064,0.999999827944463,3.159994863000831e-05,-3.5682165121169902e-06,-3.62915031838541e-05,0.0015354678107045905,-0.01160102661794758,9.799397237830988
1686962252.0558848,-0.0005315835968591209,-5.387126220803781e-06,0.00024911724480646637,0.9999998276652136,2.2666554825703944e-05,-2.5000673063590174e-05,5.020170416963936e-05,-0.000369454824115567,-0.009380283616811312,9.800673120142113
1686962252.155885,-0.0005319352227954219,-5.416797123177854e-06,0.0002493739316821682,0.9999998274140948,9.05840345671743e-05,-3.914750512617995e-05,-4.781929277935233e-05,0.0015663111225371904,-0.01317788337416641,9.80086607834851
1686962252.255885,-0.0005323151842216368,-5.404882617640574e-06,0.0002496020513544174,0.999999827155059,8.525266214346616e-05,-3.238506911427597e-05,-4.772346988723634e-05,0.0008292312273393604,-0.010677723466967196,9.8038622173188
1686962252.355885,-0.0005327737276535503,-5.361970089291435e-06,0.00024987597471042244,0.9999998268426858,-5.6094710010023704e-05,-3.0936463356479967e-06,7.1072426221546845e-06,-0.0002297724439874445,-0.010985947026246237,9.79875911539349
1686962252.455885,-0.0005330688948082884,-5.41566642432441e-06,0.00025015649443360996,0.9999998266149611,8.9963879335717e-05,-4.008102937462901e-05,-4.5961092046613694e-05,6.975502621446826e-05,-0.010488965231658123,9.7996535908115
1686962252.5558848,-0.0005334674353706593,-5.404560441538629e-06,0.0002504198504802479,0.9999998263365772,-1.3474982971639139e-05,-8.613842147862076e-06,3.882555671472593e-05,2.2776431331396896e-05,-0.01046875678525597,9.799624361476248
1686962252.655885,-0.0005338742161446988,-5.408554230231774e-06,0.0002506638247569245,0.9999998260583427,0.00010334453502273119,-4.531390863210483e-05,-3.8915559249413735e-05,0.0021092204611092053,-0.011836616788418372,9.801801125096917
1686962252.755885,-0.0005342369935082285,-5.414373264807877e-06,0.0002509558939924543,0.9999998257913143,-3.46157683392815e-05,-1.1740612612360811e-05,1.5816022203162254e-05,0.000150511308081501,-0.010402725057644386,9.800139748386567
1686962252.855885,-0.0005346491079754337,-5.412224568250955e-06,0.0002512299526174565,0.99999982550226,-3.681598296361921e-05,-9.374421733301114e-06,1.3776685327608995e-05,-0.0012067012166869797,-0.009165538872793729,9.802424653073201
1686962252.955885,-0.0005349994364632306,-5.414241999847213e-06,0.0002514663582028401,0.9999998252554646,-6.771452614514436e-06,-5.8911066705088145e-06,4.3359539594946087e-05,0.0005025690312382565,-0.010548886349791143,9.799793116066818
1686962253.0558848,-0.0005353938750355825,-5.414160990580337e-06,0.00025173713248994705,0.9999998249762355,-1.3555326529657908e-05,-2.551258870709379e-06,4.112415387705064e-05,-0.0012373566773912171,-0.007865978649313847,9.798411728719085
1686962253.155885,-0.0005357953854969244,-5.423385649859057e-06,0.0002520365891523127,0.9999998246857094,-2.0340600000385295e-05,-1.568573416619348e-05,5.0976835285565725e-06,0.0003390700603836885,-0.010684595079446899,9.800067784816916
1686962253.255885,-0.0005361848648045932,-5.386759486320555e-06,0.00025226415365318705,0.9999998244197698,-8.793601238862586e-06,-1.5078509882883813e-05,4.386633651334379e-05,-0.00016386150903383072,-0.010051692060806278,9.799946536738451
1686962253.355885,-0.0005365588810882979,-5.423707404291427e-06,0.00025257351743289614,0.9999998241408691,5.0658619893793345e-06,-1.126390514254452e-05,4.406634948837973e-05,-0.00013286271171042595,-0.008951514102001344,9.801110374602771
1686962253.455885,-0.0005369562194640347,-5.411700217581726e-06,0.00025281392240432643,0.9999998238669109,-4.099387855020914e-05,-5.984144004808824e-06,1.4689072553641544e-05,2.2649963659093487e-05,-0.01039198296680711,9.800238453313002
1686962253.5558848,-0.0005373482963956895,-5.383842765772563e-06,0.00025299760995513114,0.9999998236100005,-9.84557379406532e-05,4.053922493182686e-05,-4.228485910460304e-05,0.0009549586702013037,-0.01320824469915478,9.79676764231084
1686962253.655885,-0.0005377754708003729,-5.367852796105341e-06,0.0002532591214865869,0.9999998233142577,-7.959613620601087e-05,2.7057054426137576e-05,-2.723432760888774e-05,0.0011177356021698855,-0.012373668740806141,9.797402639952525
1686962253.755885,-0.0005380481940595585,-5.417532357966708e-06,0.0002535589057811931,0.9999998230913206,-7.553989402456514e-06,-2.238550860089989e-05,1.055352416225112e-05,0.0004634631502576519,-0.011538106615039241,9.799872770641533
1686962253.855885,-0.0005384472144659352,-5.417555454634061e-06,0.0002538489473761068,0.9999998228029641,-3.08122217095589e-05,-1.2042491556998916e-05,1.5637534170924388e-05,0.00036787594061816825,-0.010718686556389868,9.799841882919049
1686962253.955885,-0.0005388266841244609,-5.41320631317745e-06,0.0002541195593557068,0.9999998225298599,1.0582377354061107e-06,-1.721921353505853e-05,4.3263713769706204e-05,-0.0009676107148357376,-0.011002610429109333,9.799914683551588
1686962254.0558848,-0.000539246765365972,-5.383375842915313e-06,0.00025430411765635965,0.9999998222566647,8.571364215602838e-05,-2.4256179115021175e-05,-3.449187998587565e-05,0.001172133808396012,-0.012735849359747487,9.800525361937341
1686962254.155885,-0.0005396781492000218,-5.380894154887116e-06,0.00025457808548631387,0.9999998219542541,-6.800381155136496e-05,4.129133454186554e-05,-4.915070175471948e-05,0.0010833859954393719,-0.013502252943745654,9.797035793432464
1686962254.255885,-0.0005400173903383383,-5.4104325303002325e-06,0.0002548881038401095,0.9999998216919841,2.955759393527265e-08,1.5822047520998657e-05,-5.062351670135409e-05,0.0007569735071226818,-0.010871766372678707,9.801502316509096
1686962254.355885,-0.0005403593936931122,-5.4166660544890405e-06,0.00025515993539848266,0.9999998214378805,-1.3625881189985039e-05,-1.8316723987067724e-05,2.0815134261565566e-05,-5.909434235861498e-05,-0.011261945216713035,9.799851951777974
1686962254.455885,-0.0005407549233508927,-5.417979451957676e-06,0.00025538747754962293,0.9999998211659814,-9.270995717051373e-05,4.078438527453502e-05,-4.910681506933834e-05,-0.0004591581883308798,-0.010562189437994255,9.795377263030389
1686962254.5558848,-0.0005411583478612688,-5.406476675419863e-06,0.00025566358371817107,0.9999998208772563,-5.582386734862346e-05,-1.49419294020451e-06,-6.755041089728963e-06,0.0005385894933009532,-0.0112568213245625,9.799077737513162
1686962254.655885,-0.0005415065670272243,-5.389706328473297e-06,0.0002558904031567067,0.9999998206308293,-1.1656344603940786e-05,-1.9017860316538015e-05,3.720617557759008e-05,-0.00034403580706109425,-0.01099681101114195,9.799785393126935
1686962254.755885,-0.0005419121287947281,-5.407184488907902e-06,0.00025619146759328046,0.9999998203339535,-4.3110398230408806e-05,-5.516670924176902e-06,1.6317022724907e-05,0.00020121294324000567,-0.011033311266210072,9.799177205570999
1686962254.855885,-0.0005422748202046991,-5.413232496965808e-06,0.0002564677200712219,0.9999998200664962,-1.6822095503904118e-05,-8.30776139365372e-06,3.972119227371451e-05,-0.0006185791148167139,-0.01104477294563938,9.799942414384274
1686962254.955885,-0.0005427247557403679,-5.387328560667321e-06,0.000256705784014702,0.9999998197614621,-4.2397707905577643e-05,-2.1037323098055034e-06,9.03832637824863e-08,0.0004392168094813364,-0.012003371086413459,9.798956756470638
1686962255.0558848,-0.0005430346039505635,-5.4161152265976195e-06,0.0002569985327786589,0.9999998195179032,-1.617553369777558e-05,-1.435241893083368e-05,1.9622362537845816e-05,0.00022945486210718976,-0.010771638760269892,9.799785486279696
1686962255.155885,-0.0005434307037876325,-5.384472030273859e-06,0.00025718339789155344,0.9999998192553725,6.973630861557747e-05,-1.7152221589366696e-05,-4.569915736922482e-05,0.0001307667772013487,-0.010530426962104968,9.800477513378876
1686962255.255885,-0.0005438914533993415,-5.363714560231981e-06,0.0002574661466905201,0.9999998189322341,-8.153620281908096e-05,4.643372570276287e-05,-3.959815309352172e-05,0.0009699939752522086,-0.012954892039648329,9.797151392313037
1686962255.355885,-0.0005442666552918706,-5.355358683825521e-06,0.00025770949947798795,0.9999998186654546,-5.89695468623356e-05,3.684507976334482e-05,-5.146898089691734e-05,0.0012198080356436837,-0.010987075131478709,9.80060516407398
1686962255.455885,-0.000544629540473289,-5.3791519892069635e-06,0.0002580055873256921,0.9999998183914062,-8.516946068813015e-05,3.420352297886201e-05,-3.924421125809429e-05,0.001120350024638392,-0.011853447857132162,9.797492522611888
1686962255.5558848,-0.0005449222105596151,-5.3880281887793034e-06,0.00025824862256413234,0.9999998181691848,-7.67491326463269e-06,-1.4067331822674417e-05,3.939028714665347e-05,-0.0005854820359091561,-0.011161243655588503,9.799928022378294
1686962255.655885,-0.0005453492117549435,-5.373240020956751e-06,0.00025849697464745653,0.9999998178723233,-9.39813523373489e-05,3.997066674390938e-05,-4.50376478566828e-05,-6.21853201676732e-05,-0.010524694858269956,9.800163632886308
1686962255.755885,-0.0005456800260488434,-5.395457394695439e-06,0.0002587962260811923,0.9999998176143392,-2.5878069015949248e-05,-1.4907996877419246e-05,1.5764047162718884e-05,0.00018298837056423867,-0.010972002056292177,9.800253820591768
1686962255.855885,-0.0005460438973527237,-5.36445753984772e-06,0.0002589825444017304,0.9999998173676465,-1.243068657088975e-06,-1.5908791689149978e-05,3.5466936877510374e-05,2.283545256952604e-06,-0.010090120616018735,9.800055735688991
1686962255.955885,-0.0005463684557735181,-5.391743245076664e-06,0.0002592800852041166,0.9999998171131218,-8.668886050322867e-06,-1.3721928390545352e-05,4.059394590413116e-05,-0.000594197720972777,-0.011119919717868002,9.799825382955664
1686962256.0558848,-0.0005467618673123795,-5.398586569585963e-06,0.0002595794800859289,0.9999998168203879,7.941044005124984e-06,-2.0609305025608343e-05,4.607078571408597e-05,-0.0005109078696927882,-0.010947702951471253,9.799913973492917
1686962256.155885,-0.0005471267143104956,-5.3997346063969574e-06,0.0002597617116980651,0.9999998165735106,9.582054927789002e-05,-3.967945555934625e-05,-5.179499117604048e-05,0.000370773341738217,-0.010747589723603485,9.799941386564088
1686962256.255885,-0.0005474700168385703,-5.399214024229853e-06,0.00026005893314653847,0.9999998163083735,-1.3491529647875924e-05,-1.7379197740741554e-05,3.868002298698939e-05,8.827182037208158e-08,-0.010185201283898446,9.800523507297099
1686962256.355885,-0.0005478438353117964,-5.3983928256051385e-06,0.0002602929876142263,0.9999998160427582,-6.181615427052366e-06,-3.889398265723831e-06,4.151390544100938e-05,-0.0013348615286214878,-0.008306392915246959,9.798843624537382
1686962256.455885,-0.0005482180803135702,-5.392396398910247e-06,0.00026056254113449674,0.9999998157674934,1.566720089588587e-05,-2.0123182810874783e-05,5.00463760658573e-05,0.000551331522023307,-0.00976346142001606,9.80117679809975
1686962256.5558848,-0.0005485775892350686,-5.418297069786045e-06,0.00026082369319405097,0.9999998155021189,9.351150228334352e-05,-4.744968741286415e-05,-4.597696856885941e-05,0.0015756899186984573,-0.013385981984089013,9.801113226096083
1686962256.655885,-0.0005490344114072338,-5.367465803331742e-06,0.0002610488489926348,0.9999998151929348,-8.327540147243404e-05,3.3188876745522667e-05,-3.469601887089879e-05,0.0008580518110395084,-0.012710569019024497,9.797252947170888
1686962256.755885,-0.0005493339753746976,-5.412314573969555e-06,0.00026135402746818245,0.9999998149484642,-5.7281683150637265e-05,1.2459010845375965e-06,9.870332980194233e-06,-0.0001751115780148579,-0.010448117297263877,9.799193600187266
1686962256.855885,-0.0005496908568001763,-5.420609339592349e-06,0.00026163540654468537,0.9999998146787293,-1.0389953588895972e-05,-2.477331880520291e-05,2.1433671522110094e-05,-4.9010352599992545e-05,-0.011504083425278472,9.79984079345381
1686962256.955885,-0.0005500624725340548,-5.435244994414309e-06,0.00026190425685371265,0.99999981440393,-4.027249730698036e-06,-4.983925680421454e-06,4.082974347644667e-05,0.0006822512529048399,-0.010424614193495215,9.799760474283234
1686962257.0558848,-0.0005504751391484682,-5.4325263599090405e-06,0.0002621595012243038,0.9999998141099851,3.890566095637818e-05,-3.5840841046659276e-06,-4.805143105938812e-05,0.0006574628144147044,-0.010977116266937556,9.802387470378726
1686962257.155885,-0.0005508836661236475,-5.447303636310911e-06,0.0002624784845654558,0.9999998138012619,-5.329262618603237e-05,-4.5804445963580135e-06,-3.0502183776335685e-06,-6.577418388723153e-05,-0.011502841530225965,9.798597666498793
1686962257.255885,-0.0005512851057025114,-5.4331446138958175e-06,0.0002627001207574765,0.9999998135219125,-9.634814815143702e-05,3.8667607867610706e-05,-4.812849850639844e-05,0.0006775321422285676,-0.01327037513686875,9.79673136637475
1686962257.355885,-0.0005516169972141536,-5.432931504549204e-06,0.0002629338414871979,0.999999813277466,-8.193151706782171e-06,1.8224887932829937e-06,4.1344942392341635e-05,0.0007390312158256414,-0.010575680199866632,9.79983358999916
1686962257.455885,-0.0005520076229223315,-5.431315679504374e-06,0.00026319342786491575,0.9999998129936349,9.446454832093242e-05,-4.6075649523902194e-05,-4.6257043676942896e-05,0.002439563880510486,-0.013464920409217061,9.801104217615629
1686962257.5558848,-0.0005524415827240507,-5.424956263821829e-06,0.00026349509498255734,0.9999998126745837,-5.543875114040802e-05,-2.222740210409164e-06,2.802743306282688e-06,-6.06691064874283e-05,-0.010514387242623421,9.799274280615752
1686962257.655885,-0.0005528019005143184,-5.460214541074821e-06,0.0002638084763026077,0.9999998123926487,-3.785849645039438e-05,-6.00424271248764e-06,1.3468417989441291e-05,0.00032461362141776747,-0.010799904725720838,9.799416730468305
1686962257.755885,-0.0005532069289968685,-5.44345352736677e-06,0.0002640420852355342,0.9999998121071023,8.864302551375979e-05,-3.663082910971234e-05,-4.7198640087003066e-05,0.002275362630012463,-0.013673634276528596,9.800964039557817
1686962257.855885,-0.0005536555876506112,-5.4146023450974835e-06,0.00026430692133440597,0.9999998117889942,3.021880324460093e-05,-2.7446542391833918e-05,5.0312859411361014e-05,-0.0006386515680337564,-0.008442339841618867,9.800159139726766
1686962257.955885,-0.0005539936067926974,-5.450250965430668e-06,0.00026459407772256167,0.9999998115256585,-7.44314042238431e-06,-1.7283822198028736e-05,2.3239153363513836e-05,0.00014054257975723946,-0.011423877070915075,9.800141454607319
1686962258.0558848,-0.0005544038189000708,-5.453196251596034e-06,0.00026486852563538605,0.9999998112256484,-3.5320646114781734e-05,-1.023425773813793e-05,3.518733851382411e-06,0.00035786880332848935,-0.011272894510198727,9.799715143026589
1686962258.155885,-0.0005548455980195731,-5.4122609371363764e-06,0.00026507872235274796,0.9999998109251524,-6.722949479105263e-05,3.753993382769147e-05,-4.721518770238824e-05,0.0008575393562168164,-0.012385190189482805,9.797410227550783
1686962258.255885,-0.0005552123529536609,-5.426729985181953e-06,0.0002653464505341056,0.9999998106505095,9.070890807199791e-05,-2.6936187289771343e-05,-3.2745293549527824e-05,0.0018471145263308586,-0.012798003281008172,9.800910941189606
1686962258.355885,-0.0005556196023237627,-5.425487631196792e-06,0.00026563147309499987,0.999999810348653,-1.126848100106452e-05,-1.4271341640778504e-05,2.38705842455258e-05,-0.00020096589453507438,-0.011810607473698699,9.799874258407062
1686962258.455885,-0.0005559710790583031,-5.425901954093994e-06,0.00026586154220604514,0.9999998100921617,-8.682682208812259e-05,2.2328397295938614e-05,-2.117405076388911e-05,-0.0006304413087297686,-0.010509442503966092,9.799085303757057
1686962258.5558848,-0.0005563577298235581,-5.426076495240669e-06,0.0002661335691024086,0.9999998098047607,-1.6402690688852157e-05,-2.5179228975508044e-06,3.9544915391254265e-05,-0.001019034204975716,-0.008424657351048137,9.798163890062751
1686962258.655885,-0.000556748165927228,-5.406094201351646e-06,0.0002664022762604726,0.9999998095160225,-1.196890556118922e-05,-1.2696906737056138e-05,4.272504196685997e-05,-0.00011378098307627885,-0.010284148317508889,9.799921975099249
1686962258.755885,-0.0005571309021221438,-5.4242646812882275e-06,0.0002666619387739384,0.9999998092335547,-9.195815266123671e-05,3.0597265419304074e-05,-2.568985101026823e-05,0.0005227665539590009,-0.013292485358520425,9.796689905056883
1686962258.855885,-0.000557512676014397,-5.406619497650534e-06,0.00026689769995834957,0.9999998089579829,-9.447283603092117e-06,-3.2611702854282843e-06,3.628677809997818e-05,0.0003511188286259993,-0.010886926453348832,9.800100923494709
1686962258.955885,-0.000557894248480849,-5.415939568957948e-06,0.00026720584844796245,0.9999998086628366,-3.396112419442003e-05,-6.877678159904422e-06,1.558734080853211e-05,-0.00019996420785066074,-0.0106067553648371,9.799337403079733
1686962259.0558848,-0.0005582660600462876,-5.416976056440773e-06,0.0002674400120162002,0.999999808392733,8.450940882657158e-05,-2.856486649087044e-05,-4.814413866809237e-05,0.0009044064398544276,-0.011405979804198404,9.80368805207864
1686962259.155885,-0.000558682518526422,-5.40635049002131e-06,0.0002677177224557643,0.9999998080858996,-8.710936961981067e-05,2.2126876971775924e-05,-2.1249303163176443e-05,0.0007890112732678665,-0.011854750706299832,9.798902922646274
1686962259.255885,-0.0005590133179289854,-5.404282847112099e-06,0.00026796613815429363,0.999999807834508,-8.980663257273289e-06,-1.3068265228105724e-05,3.8490363509670735e-05,-0.0005235850240551743,-0.011425487451863973,9.799978265679197
1686962259.355885,-0.0005594099817056074,-5.4026728405992255e-06,0.0002682338074894953,0.9999998075409354,-5.408548268965444e-05,-8.812860200099232e-07,9.487207296389463e-06,0.00021235893987438606,-0.010913192765729841,9.798938169881628
1686962259.455885,-0.0005597832532079747,-5.40224110036549e-06,0.0002684761156637057,0.9999998072670316,4.677513274455053e-05,1.9007235495315763e-06,-5.656815285677639e-05,0.0019341420708562343,-0.013574847490845691,9.799246663836206
1686962259.5558848,-0.0005601542821682464,-5.380994285577737e-06,0.00026874244712845886,0.9999998069878424,1.407955864625458e-06,-2.3178798769336052e-05,4.1324557886141654e-05,-0.0008301003564772043,-0.011406629936454492,9.800123913445907
1686962259.655885,-0.0005605369396210379,-5.366611470069904e-06,0.00026898421858539566,0.9999998067084958,-7.225847301230049e-06,-2.363242508526231e-05,2.453282535503149e-05,-0.0002019645029258732,-0.010893019915297073,9.800087238497081
1686962259.755885,-0.000560920148637632,-5.377713823992189e-06,0.00026923224952663866,0.9999998064268127,-8.982369842638801e-05,3.505825952296789e-05,-4.537884898568646e-05,0.0006014593464610364,-0.011380922057328734,9.799991042588545
1686962259.855885,-0.0005612857749846471,-5.375920569872361e-06,0.0002694917925335399,0.9999998061517572,-8.865181613017634e-05,3.530127179028129e-05,-4.59528780395481e-05,0.0002703493997889035,-0.011101163404150372,9.80030444791906
1686962259.955885,-0.0005615778207832946,-5.372352252968595e-06,0.0002696893428696223,0.999999805934555,-7.119128617924751e-06,-6.681327964659374e-07,3.631854592143244e-05,-0.0010994674306211976,-0.008347179240276552,9.79915081185372
1686962260.0558848,-0.0005619224676357051,-5.3695580323734336e-06,0.0002699694261390196,0.9999998056653898,8.793062426897042e-08,-1.2392414427552398e-05,4.650025203536353e-05,-0.000574139409857882,-0.011185808970665055,9.800104065010006
1686962260.155885,-0.0005622867158585163,-5.389261591307693e-06,0.0002702647746467542,0.9999998053807594,-4.201067266146279e-05,-1.56383742284963e-05,-3.9529749531551603e-07,0.00036857050633709246,-0.012125287379595898,9.799059795476804
1686962260.255885,-0.0005626581969171592,-5.382712450249333e-06,0.00027051212483360617,0.9999998051049662,-9.504270162611207e-05,2.4712088623744926e-05,-2.7911132629126714e-05,0.0013091581781885058,-0.012196968811755844,9.79807794629504
1686962260.355885,-0.0005629782528340488,-5.379387341788034e-06,0.00027076841172475884,0.999999804855489,1.2007634181929366e-05,-2.9049661118108245e-05,2.83804493933348e-05,-0.0008102389331190157,-0.011839646674110726,9.800058934175139
1686962260.455885,-0.0005632079952363763,-5.380049493442169e-06,0.00027057986069379343,0.9999998047771552,-4.354991745494406e-06,-4.86654634603924e-06,1.2418572371150295e-05,0.0009163089899584069,-0.01054265572658917,9.799923098348103
1686962260.5558848,-0.0005633126983257421,-5.3862128255884275e-06,0.00027010160382821775,0.9999998048474391,-6.3171996213637766e-06,-9.028926539914875e-07,-2.034110272782305e-06,9.333991662162856e-05,-0.011068118891804325,9.799991802647083
1686962260.655885,-0.000563553115418884,-5.437347334847227e-06,0.00026993731272933303,0.9999998047560653,-7.43303292089455e-06,-1.6228281935091911e-06,-3.513307368886803e-07,0.00012576124046308096,-0.011042723450637735,9.799997807274213
1686962260.755885,-0.0005639949060872768,-5.458496942832184e-06,0.0002698379510836721,0.9999998045336964,-2.6941608947296334e-05,3.306791108186717e-05,-6.450840869937703e-05,0.0010762398626244587,-0.013251979130725795,9.798357802072358
1686962260.855885,-0.0005643750187650627,-5.5510289395612465e-06,0.00026996913563264726,0.999999804283326,1.5596641826569632e-05,-1.7946960200470432e-05,4.157163275598943e-05,-0.00010005604393699156,-0.011148016231116909,9.800383007647378
1686962260.955885,-0.0005647440285023355,-5.6576359200010415e-06,0.0002701019467380804,0.9999998040385367,-1.3026463926606499e-05,-1.0223876588334853e-05,1.88692791962085e-05,0.00012907966272957067,-0.011105778913655912,9.799982707952493
1686962261.0558848,-0.0005651724448990435,-5.75334744952219e-06,0.00027023163832950054,0.9999998037609149,-7.371461735408793e-05,1.7123221082621447e-05,-1.5949147800797486e-05,0.00015526270526249397,-0.011931445632640246,9.798012927055575
1686962261.155885,-0.0005654880401626231,-5.884903987583497e-06,0.00027038567142280434,0.9999998035400972,-1.7178520379981463e-05,-6.098888036872055e-06,3.6456719716061804e-05,0.0005350206768881159,-0.010747435928620359,9.799622317866715
1686962261.255885,-0.0005658949714137715,-6.059904498402602e-06,0.0002710150778485892,0.9999998031384739,0.00010074096150862076,-6.890883122990748e-05,1.0276191354141255e-05,0.0005771477233785751,-0.0105580842965929,9.801871030453176
1686962261.355885,-0.0005666136176723852,-5.970350533817686e-06,0.0002720654815684085,0.999999802446849,-8.851922847378332e-05,4.136778688969921e-05,-2.654307339741636e-05,0.0007522589346302002,-0.011777531030760742,9.798993182244883
1686962261.455885,-0.0005670765595477677,-5.938276610126896e-06,0.00027252974450231134,0.9999998020582058,-2.4668906445991098e-06,-4.357000227810666e-06,4.641112148426676e-05,0.00053376642876116,-0.010857194164252213,9.799698712435083
1686962261.5558848,-0.000567593341913989,-5.865106421682495e-06,0.00027290857807415705,0.9999998016621338,-5.528938655052842e-05,2.176018271527535e-05,8.520265790564476e-06,0.0003297806861837729,-0.011872627754107929,9.798648147787892
1686962261.655885,-0.0005681190642433654,-5.82711090430506e-06,0.0002733558232456349,0.999999801241664,-3.579274966099438e-05,5.567625437779873e-06,1.6849757510088494e-05,-0.0002607724650578509,-0.012293379114516445,9.799663453426195
1686962261.755885,-0.0005685549455055262,-5.804583517683056e-06,0.00027373168777417923,0.9999998008912522,-4.79466982259207e-06,-6.456906327072473e-06,4.353138591619699e-05,0.001016649625104206,-0.011015255480346384,9.799121901223005
1686962261.855885,-0.0005690762281657951,-5.749809499128557e-06,0.0002740976618417123,0.9999998004948092,1.0821849436397503e-05,-1.8686303430459056e-05,3.306756075548562e-05,-0.0004756510523891129,-0.00969618702895347,9.802415815680963
1686962261.955885,-0.0005695225764546852,-5.72965528359847e-06,0.0002744346675276725,0.9999998001483897,8.194199628663142e-05,-8.333803576602608e-06,-5.058271368395282e-05,0.0015585470574827314,-0.014089729080322645,9.800300332177281
1686962262.0558848,-0.00056998473647524,-5.708857420689552e-06,0.00027482132745650534,0.9999997997790036,-1.1047879716325498e-05,-1.0250548620345664e-05,4.699196414636826e-05,0.0004387865028570927,-0.01100881309241906,9.799264611785588
1686962262.155885,-0.000570464793352524,-5.679903821206661e-06,0.0002751346901934053,0.9999997994192603,-9.312014126836908e-05,6.045229700945651e-05,-3.277191832915054e-05,-0.00027262869490306393,-0.0108701599675117,9.797656123838463
1686962262.255885,-0.0005709454889524208,-5.6576282254337055e-06,0.00027549150514560665,0.9999997990468151,-3.346022997757633e-05,-5.092492074982914e-06,2.2071894857260407e-05,0.000630841760829777,-0.012188430116310552,9.799102641393578
1686962262.355885,-0.0005713907216845801,-5.627943550548216e-06,0.0002757892378089042,0.9999997987106126,-1.2576162449470477e-05,-4.472645636722192e-06,4.041009207863355e-05,7.350858421362534e-05,-0.011137651623556793,9.799943555830456
1686962262.455885,-0.0005718551042325032,-5.612893698637771e-06,0.00027612160283578595,0.9999997983535275,-2.9104642104552364e-05,-6.311526034429452e-06,2.432565921694085e-05,0.0001745247105816035,-0.011241359001627284,9.799228115511804
1686962262.5558848,-0.0005723703228546578,-5.571589568382257e-06,0.000276407673124954,0.9999997979799643,-9.586037323830251e-05,4.274179903587462e-05,-3.221644217263202e-05,0.0005363520876171385,-0.012312419404661306,9.797039329874888
1686962262.655885,-0.0005727604822025249,-5.5713721425025765e-06,0.00027674219592272717,0.999999797664053,-6.898459334854352e-06,-1.2136211816645722e-05,4.2047044731558144e-05,0.00013273824910542214,-0.011168293626637906,9.80001962132084
1686962262.755885,-0.0005732143352518639,-5.544056174291929e-06,0.0002769971814974387,0.9999997973335548,8.382215813060846e-05,-3.0918054143973518e-06,-4.785034299154256e-05,9.542549335400954e-05,-0.011184553022222656,9.799947892321716
1686962262.855885,-0.0005736750785058626,-5.518930435382322e-06,0.00027729825889159413,0.9999997969860401,1.0928917740260949e-05,-2.3090275898730092e-05,4.109337919142126e-05,0.0002698278087172927,-0.011523047525054515,9.800538422493908
1686962262.955885,-0.0005741396693060163,-5.482964204573848e-06,0.00027752669505483557,0.9999997966562347,-6.173542965533875e-05,9.25980350245595e-06,-8.957964925753597e-06,-0.0003454083700135623,-0.010980113072412862,9.80116927338631
1686962263.0558848,-0.0005745721728859936,-5.4560877753195215e-06,0.00027774459922296163,0.9999997963474727,-2.957802824870453e-05,-5.865737932166617e-06,1.403463302633977e-05,0.000299659826432575,-0.012248577437158827,9.79937133280757
1686962263.155885,-0.0005749708037828681,-5.458287418736025e-06,0.0002780236963701863,0.9999997960407824,-4.580214020213768e-05,3.751535431477677e-05,-5.1208650057662425e-05,0.0007516334703557094,-0.011671117493211812,9.79859798575392
1686962263.255885,-0.0005753269170687017,-5.464918527650701e-06,0.00027828098777337216,0.9999997957643617,-1.0833506593975065e-05,-1.0178055542817873e-05,4.235362012945406e-05,-0.0004790215941767366,-0.011716861434119685,9.800042766896588
1686962263.355885,-0.0005757680170514032,-5.420715888173532e-06,0.00027850490520602114,0.9999997954483912,1.3383881756697888e-05,-1.915633964158403e-05,4.4272316241420385e-05,0.00044307873423437297,-0.010885957916528398,9.800082422203841
1686962263.455885,-0.0005761085034450097,-5.434275696333441e-06,0.00027872020447658637,0.9999997951922333,-1.1819087251628423e-05,-5.796163461450414e-06,3.794284769892667e-05,0.00034398850595457185,-0.011342726800602835,9.799940072928166
1686962263.5558848,-0.0005764977635522428,-5.433093007714312e-06,0.0002790059607336404,0.9999997948882211,-3.0210575973811055e-05,-5.246488811341765e-06,1.586373894620688e-05,1.3320087377442251e-05,-0.011371694343678754,9.799236771196119
1686962263.655885,-0.000576877508145327,-5.424128383794828e-06,0.00027925645779176025,0.9999997945993542,-5.231852811064892e-06,-1.5159738000364836e-05,2.5427365673983294e-05,0.00018993063948668804,-0.011968538330874669,9.800035658762958
1686962263.755885,-0.0005772433468309865,-5.412040109420214e-06,0.0002794536836811846,0.9999997943332124,9.998637084812901e-05,-4.3237249629122e-05,-4.382606674593108e-05,0.0007685237945815863,-0.011400663312462112,9.80410905331794
1686962263.855885,-0.0005776163700969707,-5.395330633280087e-06,0.00027971011459297163,0.9999997940462144,-2.693315174142458e-05,-1.2729052400376645e-05,1.679188543841101e-05,0.00010327029085507744,-0.01128856050142046,9.80018111836968
1686962263.955885,-0.000578012275986305,-5.366026670502215e-06,0.0002799422010846385,0.999999793752668,6.566769538155198e-06,8.150608486392842e-06,-3.702904871879472e-05,0.0015527443250708457,-0.012688039859296679,9.799777498098035
1686962264.0558848,-0.0005783367903170048,-5.373695380724373e-06,0.00028019862962797395,0.9999997934931828,-8.767585841806211e-06,-2.0256370097910388e-05,3.920050667668803e-05,-0.0005638431004014127,-0.011689897574793677,9.800079076461722
1686962264.155885,-0.0005787077547516303,-5.3829058057579636e-06,0.00028046507762860426,0.9999997932038284,-3.690572931732848e-05,-3.3683966867368995e-06,1.4544082285716818e-05,-0.00011489027207500634,-0.011272335110220749,9.799169511731444
1686962264.255885,-0.000579067134399852,-5.383655324607332e-06,0.0002807479799347104,0.9999997929163996,5.862148917142363e-06,-2.8035684542375328e-05,2.4837223986416843e-05,-9.573745537641741e-05,-0.011890422577373886,9.800303819593124
1686962264.355885,-0.0005793769266429479,-5.372423896840775e-06,0.00028093001318142273,0.9999997926858994,-1.0449977275793066e-05,-2.770804341332136e-06,3.5579075563953694e-05,6.944426119032392e-05,-0.011473449882662948,9.800093214816934
1686962264.455885,-0.0005796743793239136,-5.373491062107102e-06,0.0002810803790087467,0.9999997924712586,-1.820766146894755e-05,-4.780411591499592e-06,1.8060184609156355e-05,0.0003664755202805199,-0.0112686972944551,9.799521985335737
1686962264.5558848,-0.0005798316386723237,-5.306557323521474e-06,0.0002804030615377218,0.9999997925705957,-3.9113145336451863e-07,-1.1477658488462825e-05,2.694347626248018e-05,-0.0011568710758463247,-0.009514302742307287,9.803071190081198
1686962264.655885,-0.0005801454456785297,-5.338863166927619e-06,0.00028030683208902764,0.9999997924153977,9.372254761228556e-06,-1.7801249414012312e-05,1.8289852588919428e-05,-0.0022216251234163037,-0.009992573004660204,9.803104710422033
1686962264.755885,-0.0005804424374702284,-5.398823018867072e-06,0.00028031627272940413,0.9999997922400868,-3.978534240901939e-05,1.602421810231207e-06,-6.6434852697372505e-06,-0.0008158250923432813,-0.010654681071055624,9.801941675085564
1686962264.855885,-0.0005807474030774922,-5.4607010295562596e-06,0.00028034981854431804,0.9999997920532853,-6.522562672455537e-06,-1.1681393256694343e-05,3.779182923923822e-05,-0.0004792762972198586,-0.011528151827669229,9.799918009342983
1686962264.955885,-0.0005811205106771084,-5.516968852886366e-06,0.00028040981673681557,0.9999997918194032,-7.770023365657841e-05,2.6409805431678486e-05,-2.449151015043138e-05,-0.0005270394306613713,-0.011092242358825341,9.800629497991165
1686962265.0558848,-0.000581431894018469,-5.598465560238112e-06,0.0002804636981757524,0.9999997916228404,-9.254253566523154e-05,3.869656376638849e-05,-3.089726174710001e-05,0.0003781699719747637,-0.01160112249283109,9.799384940324959
1686962265.155885,-0.0005817783179844131,-5.66978746116302e-06,0.00028054790304247676,0.9999997913973365,1.7377869453371526e-05,-1.816668933553929e-05,2.7738006292179906e-05,-0.0010731584613730325,-0.00997555408924505,9.799252633307974
1686962265.255885,-0.0005820833175767328,-5.760010671293261e-06,0.0002806409386991348,0.9999997911932269,7.73592045824365e-06,-1.9168500685743693e-05,4.357951386873475e-05,-0.00011673850529101662,-0.01118080515129481,9.800467430547052
1686962265.355885,-0.0005823728255911555,-5.870252565757767e-06,0.0002807473125512101,0.9999997909941675,5.178766567047884e-06,-1.6879461687495935e-05,3.834250954470346e-05,-1.5316232283074923e-05,-0.010870718354976647,9.800855106664937
1686962265.455885,-0.000582739628905582,-6.053452280584897e-06,0.00028144118205378774,0.999999790584349,-4.024321617465037e-05,1.0691874538022947e-05,7.116954421063434e-05,-0.0007642047946483863,-0.009404957018014085,9.797769346791702
1686962265.5558848,-0.0005834077760285768,-5.9607426094058815e-06,0.00028235947337267324,0.9999997899364602,-1.1132810344622926e-05,-3.853465352732418e-06,4.053372881839944e-05,0.0002225661256842925,-0.011202254766608789,9.80003417080245
1686962265.655885,-0.0005839456354362592,-5.889052239416385e-06,0.000282820243235469,0.9999997894927399,6.509767704211903e-06,-1.642274281688438e-05,4.914275634892933e-05,-0.00016555688010331789,-0.011303504060785813,9.800361868676127
1686962265.755885,-0.0005843965153821159,-5.861525486515302e-06,0.00028323504771138113,0.9999997891121093,-8.548199033498021e-06,-8.833016008939429e-06,4.8125451882296045e-05,-3.368827725426071e-05,-0.011295729822071677,9.799695123491391
1686962265.855885,-0.0005849010376122882,-5.826884653324777e-06,0.00028365560976426074,0.9999997886981371,-1.4770771674498445e-05,4.112828312037424e-06,6.5298830144101185e-06,5.502637489404095e-05,-0.011472209295028433,9.800159437813274
1686962265.955885,-0.000585418752885349,-5.761365425453499e-06,0.00028398871747883914,0.9999997883010271,-3.786693793925216e-05,4.656328499435284e-06,1.601673516558593e-05,-0.0007559552397979173,-0.01045268131519245,9.801737663658168
1686962266.0558848,-0.0005858646457533235,-5.741429097083728e-06,0.00028432113740241196,0.9999997879455493,-8.434520798392611e-05,4.6465553577464816e-05,-4.3232500231646574e-05,-0.0010904984301852317,-0.011049477471754662,9.796509773447813
1686962266.155885,-0.0005863259809387509,-5.725103685418594e-06,0.00028469672708412915,0.9999997875683979,-1.5784956780738743e-05,-7.445775979317859e-06,4.491358186103228e-05,4.0955669236843395e-05,-0.011391274331079521,9.79995282457506
1686962266.255885,-0.0005868323026761089,-5.689350149662851e-06,0.00028503995580882765,0.9999997871738292,-2.2920275287120154e-05,3.1838507666697668e-06,1.739515689886725e-05,-0.0016521444166919489,-0.010328348420685567,9.802113385360975
1686962266.355885,-0.0005873183411252224,-5.65917561971488e-06,0.0002853581837120728,0.9999997867979007,-7.675217440122135e-06,-1.2064444604355244e-05,4.5864273589266266e-05,-6.705548889658911e-05,-0.010657983952405779,9.80055800392641
1686962266.455885,-0.0005877534633253336,-5.650093670635384e-06,0.00028570759563877475,0.9999997864425336,-1.571248097509341e-05,-1.0083396086389039e-05,2.204957808877705e-05,0.00011020584231099791,-0.011559071876374696,9.799616776894629
1686962266.5558848,-0.0005882084270691382,-5.622718153392632e-06,0.00028601619164524,0.999999786086962,-1.4494710205960858e-05,-4.897522998769921e-06,3.4599844563074477e-05,6.2893285092774e-05,-0.010646145306727995,9.799662001343231
1686962266.655885,-0.0005886483594188403,-5.583717471421908e-06,0.00028624805188107676,0.999999785761969,8.78833569550191e-05,-2.8748063839185037e-05,-4.4481018772121413e-05,0.0002380446200368909,-0.011643535920216759,9.800073153106627
1686962266.755885,-0.0005891120161371687,-5.564765581792337e-06,0.0002865601311091792,0.9999997853996555,-6.54015765005082e-06,-8.143291655330151e-06,3.838857518721287e-05,0.0003462673335647789,-0.011235157299651273,9.799682192089165
1686962266.855885,-0.0005895936471284418,-5.542352269054291e-06,0.000286874603178191,0.9999997850257649,-8.978051422816923e-05,5.1201214032528856e-05,-3.22388873441539e-05,0.00019571770825060994,-0.011653596627075727,9.799794148297538
1686962266.955885,-0.0005899659658231144,-5.531648583641816e-06,0.00028709449272625145,0.9999997847431331,-1.2424068427878525e-05,-9.075432359591133e-06,4.222381448123834e-05,8.122309294881751e-05,-0.011728741602744244,9.799934910402474
1686962267.0558848,-0.0005904723071936424,-5.4807590447566615e-06,0.0002873583992428857,0.9999997843687599,2.6607403393481892e-05,-2.2314341822268892e-05,6.080768681384926e-05,-4.620936377398364e-05,-0.011152878551969352,9.800453760182076
1686962267.155885,-0.0005908413129861688,-5.496103125162495e-06,0.0002876035449545544,0.999999784080245,-1.2463071292237446e-05,-8.521125521201133e-06,4.008921999209836e-05,-0.001032809677055272,-0.009313924944114867,9.799138994337426
1686962267.255885,-0.0005912641385587056,-5.495611965773154e-06,0.00028789576123491563,0.9999997837462503,-1.1342512502098215e-05,-7.626324368753626e-06,3.7972629106932254e-05,-0.00015006551979510448,-0.01168838983384239,9.79992459472389
1686962267.355885,-0.0005917233656078838,-5.46185119468136e-06,0.0002881331671617259,0.9999997834064289,-9.065172101519609e-05,3.4193258147615435e-05,-2.7107612357229434e-05,0.00045054771545266427,-0.011962589386391196,9.799409105631302
1686962267.455885,-0.0005920787697841632,-5.4673784969479e-06,0.0002883884052395006,0.9999997831224595,-7.221820929821835e-06,-1.1558789796632419e-05,3.88788015669087e-05,0.00013508861356581199,-0.01076332092673774,9.79991153419402
1686962267.5558848,-0.0005924693070134193,-5.4527670299889815e-06,0.000288618087086898,0.9999997828249702,-1.0360583238512947e-05,-1.0230604523339858e-05,4.0439390815970186e-05,0.0002369511439481203,-0.011611786116716176,9.799837680558934
1686962267.655885,-0.0005928470732537369,-5.435519966561622e-06,0.0002888127146844034,0.9999997825449857,8.021125944635034e-05,-1.9119794242692147e-05,-4.693755126722546e-05,0.0006247554384372761,-0.012019881178806686,9.801465811438817
1686962267.755885,-0.0005932503207046407,-5.423845762786607e-06,0.0002891062331276127,0.9999997822210888,-1.3777569573916479e-05,-1.535323543355216e-05,2.4062553130233498e-05,-0.0007123838774865995,-0.011403633273275732,9.800526099524664
1686962267.855885,-0.0005936315017859481,-5.429002449113612e-06,0.00028936173739452985,0.9999997819209518,-1.2530869729544084e-05,-1.4762073808848367e-05,6.839448666930749e-06,0.0003724872215943109,-0.012148974232419103,9.799869751321669
1686962267.955885,-0.000593995162333181,-5.409101726537802e-06,0.0002895513052420928,0.9999997816502414,9.940516966336983e-05,-3.579189748702929e-05,-4.666130469396001e-05,0.0012347579947206099,-0.012235230752822047,9.803798103987077
1686962268.0558848,-0.0005943750173488004,-5.366464477358883e-06,0.0002897616463716738,0.9999997813638403,-9.54879921912696e-05,4.582302014730677e-05,-4.335424903881454e-05,-0.00030496280668627386,-0.011378223337282037,9.798666587451331
1686962268.155885,-0.0005947185504627161,-5.381099590237913e-06,0.0002900097691986936,0.9999997810875876,-8.4624177425442e-05,2.7017388539482613e-05,-3.554230836673371e-05,0.0017958965998266783,-0.013262797008722502,9.798309956851309
1686962268.255885,-0.0005949898826315107,-5.343363735564838e-06,0.0002899845467812403,0.9999997809337013,-7.861784339556157e-05,5.107960183537433e-05,-5.930274163629794e-05,-0.00032723268026636434,-0.012275316268431717,9.799389429319858
1686962268.355885,-0.000594997507444982,-5.358941768394341e-06,0.0002894044659563044,0.9999997810971275,-6.426168604237991e-06,-6.010823634529524e-07,-3.339924320077855e-06,9.372100776086413e-05,-0.011677994916682406,9.799991631776287
1686962268.455885,-0.0005952307894619341,-5.400612854072151e-06,0.0002892195834309451,0.9999997810115626,-7.1207467533057085e-06,-1.4643958061951294e-06,-4.538607251632554e-07,0.00012084604396615839,-0.011664509094700511,9.799996655825632
1686962268.5558848,-0.000595534149860043,-5.480429733684979e-06,0.00028913182833773367,0.9999997808558896,-8.004896406743701e-06,-1.8726773104986347e-06,4.3220567278471294e-06,9.277105606444333e-05,-0.011666470282061279,9.799985809972336
1686962268.655885,-0.0005958867906874323,-5.551623760637936e-06,0.0002891792294248276,0.9999997806317187,-7.707270578186768e-06,-1.5594614832085884e-06,4.187164303706406e-06,0.00010314315225240342,-0.011680143670922596,9.799992670747567
1686962268.755885,-0.0005962340001522639,-5.61836161171733e-06,0.00028921456443458456,0.9999997804141694,-7.767437733475718e-06,-1.5199062868697531e-06,4.307482090691923e-06,0.00011376189790104191,-0.011688526452958125,9.799994760379613
1686962268.855885,-0.0005965962240334557,-5.684444144232588e-06,0.0002892818876436071,0.9999997801782868,-8.152658751011767e-06,-1.559878885956486e-06,5.138869631691845e-06,0.00010454544768650649,-0.01169534105762516,9.799992352081395
1686962268.955885,-0.0005969614358634921,-5.755857707507469e-06,0.00028935560159172363,0.9999997799386008,-8.012236798916544e-06,-1.7631998062981112e-06,4.728873436656753e-06,0.00010684634398074891,-0.011701951685315246,9.799993174395757
1686962269.0558848,-0.0005973209369062561,-5.840034738414592e-06,0.0002894155676329723,0.9999997797060864,-7.95573600848505e-06,-2.0314662715206763e-06,4.74895343704125e-06,9.981879375972278e-05,-0.011712753040035174,9.799991385900118
1686962269.155885,-0.0005976739082698603,-5.937371625515661e-06,0.00028947235176982966,0.9999997794781781,-7.883835017543502e-06,-2.417910271918474e-06,4.754272296974332e-06,0.00010894258008399814,-0.011713838635239494,9.799993466369266
1686962269.255885,-0.0005980265177138209,-6.052857587574879e-06,0.00028954518725767545,0.9999997792455915,-7.932529877943795e-06,-2.734519929999829e-06,5.469917789771215e-06,0.00010615075243639474,-0.011722652685510662,9.799992006871506
1686962269.355885,-0.0005984845819154586,-6.1645299413197085e-06,0.00028971169553774947,0.9999997789226444,9.811506003548845e-06,-1.863148449051805e-05,3.0784179962418626e-05,-0.0015309483149215128,-0.010305661837094263,9.798899078297097
1686962269.455885,-0.0005991690326833652,-6.2089202554024544e-06,0.0002910683861961826,0.9999997781185326,-1.762054910027057e-05,-4.6385895502631964e-07,2.8906334765244284e-05,0.0010353454652424813,-0.01148934782206232,9.799698645774857
1686962269.5558848,-0.0005998201192807873,-6.095915502344487e-06,0.00029159124627140155,0.9999997775765801,1.7254811587239705e-05,-7.261911815069368e-06,3.1937401773598084e-05,-0.0006175913600528299,-0.01043612116461601,9.799701166871175
1686962269.655885,-0.0006003676007769443,-6.059030847968528e-06,0.00029210530599893026,0.9999997770982364,1.6208147830429126e-05,-1.6842264556083504e-05,2.467901740376828e-05,0.0006753898838139886,-0.011951723792683432,9.800333793566205
1686962269.755885,-0.0006009248124149256,-5.97672189148743e-06,0.0002925684083400352,0.9999997766286627,-9.84227746763078e-05,7.175711787950544e-05,-5.537960002803364e-05,0.000722428379538036,-0.013958504605858634,9.797256375763526
1686962269.855885,-0.000601374699590468,-5.948060159225102e-06,0.0002930005014618204,0.9999997762318739,7.87136494921203e-05,-1.0751250185525311e-05,-4.6955473095055556e-05,0.0005804380605079618,-0.0126379387429065,9.801257701877454
1686962269.955885,-0.0006019294262522414,-5.897666418532351e-06,0.0002934829382519767,0.999999775756949,-8.53597474430346e-05,4.21673435581777e-05,-2.0508423155712355e-05,0.0008443023951084355,-0.01264037195226633,9.798191207135176
1686962270.0558848,-0.000602405491012021,-5.862763025109833e-06,0.00029388623546225054,0.9999997753520414,-9.137404136750996e-05,4.719219655616711e-05,-1.8921620371810005e-05,1.639384553372331e-05,-0.011740795554930657,9.800233307004085
1686962270.155885,-0.000602962864776379,-5.797790701133282e-06,0.0002942307563033774,0.9999997749151904,-3.797287472859778e-05,-2.596901078201776e-06,1.0597579206464068e-05,0.001274384248235928,-0.012077370743443318,9.799355774875322
1686962270.255885,-0.0006033971526215533,-5.780798338391845e-06,0.00029462670972774926,0.9999997745367549,-8.847748855228572e-05,5.33693021731943e-05,-2.465486563965031e-05,0.000906820281495382,-0.013220969876219789,9.798393927519413
1686962270.355885,-0.0006038839513686734,-5.7393980910564145e-06,0.0002949705965372226,0.9999997741417644,1.1095276324750992e-05,-2.4205804719363587e-05,4.963356824322717e-05,7.59845652199497e-05,-0.012094318374646707,9.800655991000117
1686962270.455885,-0.0006043150080440089,-5.7336226264140705e-06,0.0002953313469331933,0.9999997737749206,-2.474221681113519e-06,1.722757980253955e-08,2.535690964272875e-05,0.0004757492392924072,-0.012796897258243786,9.800138788708182
1686962270.5558848,-0.0006047770418426473,-5.707663832858459e-06,0.00029567666093344234,0.9999997733937066,-9.881158724634152e-06,3.9800439214718647e-07,2.6840307282074064e-05,0.00025936489091854276,-0.012049781548893093,9.799962487624704
1686962270.655885,-0.000605239921945192,-5.670087872588977e-06,0.00029599888549035954,0.9999997730185476,-2.568587456968082e-06,-8.082569642242356e-06,3.929582818626036e-05,0.0001884499124854422,-0.011812403762811967,9.800000111412961
1686962270.755885,-0.0006057250729248808,-5.637051055353796e-06,0.0002962809979626226,0.9999997726414391,-9.367846454057195e-06,3.4641292512608674e-05,-6.272085661577848e-05,0.002200680913519168,-0.013812653559550412,9.798159942058827
1686962270.855885,-0.0006062192085267795,-5.5938920994744996e-06,0.00029655123040421213,0.9999997722621478,-7.254645678072211e-05,4.954831616198312e-05,-3.363120458875143e-05,0.00048288632995405125,-0.0116659370758166,9.800775089293188
1686962270.955885,-0.0006066154480156898,-5.614292177637168e-06,0.00029690057586510816,0.999999771918087,-9.211955529701918e-06,-1.2969207332754827e-05,3.0461581472826837e-05,0.0002564296283681841,-0.011992480362388489,9.800044929879173
1686962271.0558848,-0.0006070941211074508,-5.578925370831435e-06,0.0002972046795150935,0.999999771537465,1.0302833800902016e-05,-1.7296847140026434e-05,4.745275866013928e-05,0.00028794606611131393,-0.011688903726364918,9.800298090420425
1686962271.155885,-0.0006075064458058047,-5.5609746705269295e-06,0.0002974067977015668,0.9999997712270691,-3.738052985013335e-05,-1.1875107187899435e-06,1.6150448152203115e-05,0.00025598911828187364,-0.012111624096080612,9.799386139850727
1686962271.255885,-0.0006079546868977826,-5.5433770897748695e-06,0.0002976848757176172,0.9999997708720161,7.7643485320873e-06,-1.2967354874320991e-05,4.415362019151957e-05,0.0005464082143212424,-0.011090355320363744,9.800029200391162
1686962271.355885,-0.0006084039868928788,-5.54119021912037e-06,0.0002979720438879186,0.9999997705132463,-7.397219860877403e-05,1.59137185391929e-05,-9.296371832829757e-06,3.604516658320677e-05,-0.011789660623541743,9.800285750117794
1686962271.455885,-0.0006089204902449651,-5.459767819802362e-06,0.0002981361037072501,0.9999997701504193,-6.436302081926239e-05,2.6332249358008734e-05,-1.4254209372028735e-05,0.0013892594450382193,-0.012343934877373668,9.797966360525157
1686962271.5558848,-0.0006092430842915075,-5.499072154046356e-06,0.00029845244694320857,0.9999997698593541,-1.6022570155919853e-06,-1.170196081078147e-05,3.889663898146102e-05,0.00017922751114049138,-0.011869668817522066,9.800130946229228
1686962271.655885,-0.0006096405726651207,-5.492931550591598e-06,0.0002987066101498536,0.9999997695412539,-1.423622426829753e-05,-7.793420298979144e-06,4.052974833365184e-05,5.2360870681350104e-05,-0.01188434828889547,9.799941386567323
1686962271.755885,-0.0006100268923743499,-5.469162219371076e-06,0.0002988990551287999,0.9999997692482903,-1.4249239779387957e-05,-6.677032798856635e-06,3.896207282525328e-05,-1.1838679770397528e-05,-0.011895160890857211,9.799904204131854
1686962271.855885,-0.0006104629204874718,-5.460873679805052e-06,0.00029918557601128125,0.9999997688965697,-6.163169813803195e-07,-1.3789055519549293e-05,2.1752721092546844e-05,0.00025400234330379536,-0.012402408259719621,9.800118788901443
1686962271.955885,-0.0006108260371275204,-5.419703162179421e-06,0.0002993649203584921,0.9999997686213852,-5.908381875454047e-06,-1.112833605496215e-05,4.612437849626965e-05,-0.0002861029973650206,-0.011877828995236034,9.800145835209326
1686962272.0558848,-0.0006112042105521169,-5.435347148124943e-06,0.0002996487305773621,0.9999997683052272,-1.4449606426091922e-05,-6.378991732755679e-06,3.8046477890744346e-05,0.00010547290061227582,-0.011297994387343505,9.800050163402695
1686962272.155885,-0.0006115601090197596,-5.416034673878853e-06,0.0002998708909012609,0.9999997680211473,-1.459020964379964e-05,-8.47709669069908e-06,3.8419214840676315e-05,-0.0006305063329494376,-0.012414560017027784,9.799867845551784
1686962272.255885,-0.000611922248015185,-5.3998006798053775e-06,0.00030007759365692916,0.9999997677376943,-5.1845954623266174e-05,3.040876537005779e-06,1.0575964493095548e-05,0.0004814671370922662,-0.012601765536036888,9.79864991731511
1686962272.355885,-0.0006122443261217762,-5.3886296120499705e-06,0.00030027252638545316,0.999999767482102,8.728293143477131e-05,-3.310666911339e-05,-4.686577779419655e-05,0.0009140886751231925,-0.012494494631294852,9.80362711351122
1686962272.455885,-0.0006125490548386377,-5.359299556341777e-06,0.00030016908467290777,0.9999997673266998,-8.594867552096154e-05,5.0462743899283745e-05,-5.626050801754279e-05,0.00015384477093825593,-0.011714616454183141,9.799907441049083
1686962272.5558848,-0.0006126833280806179,-5.340488507281268e-06,0.00029961840290942694,0.9999997674096887,-2.1837519244023423e-05,-4.615513347459928e-06,9.404795997685466e-06,-0.00041794102327783524,-0.012420051152862592,9.799074260943861
1686962272.655885,-0.0006130281896381478,-5.372335695705297e-06,0.0002995719588490801,0.999999767212082,1.160892855555069e-05,-1.741661110433945e-05,1.7722878500674005e-05,-0.0008074606505556852,-0.011854595618957426,9.799847649923022
1686962272.755885,-0.0006133085035085966,-5.423755828226023e-06,0.00029952129539727643,0.9999997670551009,0.00010909695774792273,-3.244118162837149e-05,-4.396708458005213e-05,0.001660832817746522,-0.014056575520899955,9.801347457513858
1686962272.855885,-0.0006136064636901648,-5.516207360938436e-06,0.00029962764375298057,0.99999976683995,-8.346876344538372e-06,-8.812249770198957e-06,1.7236438877960015e-05,8.169634866239813e-05,-0.012056841648020011,9.800020718723475
1686962272.955885,-0.0006139407162985316,-5.583665301601216e-06,0.0002996846810466966,0.9999997666173285,-7.452941786294199e-06,-9.613160881541814e-06,1.7521083809077073e-05,0.00010091566802621589,-0.01209102884824863,9.80000387671861
1686962273.0558848,-0.0006142711635789151,-5.652379434471725e-06,0.00029969120620408765,0.9999997664120573,9.781902163364294e-05,-3.0303695920114007e-05,-4.9052717569018274e-05,0.0017937448114344191,-0.014056840929527872,9.800678954841299
1686962273.155885,-0.0006146436228218269,-5.732972487421409e-06,0.0002998321942431769,0.9999997661404754,1.1808411100121631e-05,-1.812074631531375e-05,1.2575577861662035e-05,-0.0001852314633506495,-0.012773713514712126,9.80021314277684
1686962273.255885,-0.0006149389535423463,-5.828443298738432e-06,0.0002998961116127452,0.99999976593919,-1.2970126341281312e-05,-8.331413726678393e-06,3.458031923740464e-05,-0.0013829985992324936,-0.010535188226345148,9.797518675353238
1686962273.355885,-0.0006152685632506924,-5.93058203602544e-06,0.00029999978984967727,0.9999997657047472,-3.9517202038348245e-05,2.172203226504904e-06,6.8490164632557e-06,-0.0002654863843445693,-0.012895067213368555,9.799232054090327
1686962273.455885,-0.0006157883984154141,-6.046186660239902e-06,0.00030114273948915194,0.9999997650405437,-1.7902339950385745e-06,1.1039290016356624e-06,5.969761322435546e-05,0.0014479894807315243,-0.010265911024110508,9.800845960209811
1686962273.5558848,-0.000616335589856558,-5.984450133677052e-06,0.0003017476297256193,0.9999997645214699,-1.1563250718360063e-06,8.285094551561626e-06,2.7100586994683083e-05,0.00023004106006161492,-0.011821743253622691,9.800135375604297
1686962273.655885,-0.0006168613863679809,-5.9137911478816006e-06,0.0003021507227839591,0.9999997640759712,-2.441113360304069e-05,1.2995963600010816e-05,1.7298434892383687e-05,-0.00013048485217508743,-0.011923914788960837,9.799872501407384
1686962273.755885,-0.0006173681028294781,-5.869000194208414e-06,0.00030252900375881287,0.9999997636491633,1.9036668260416467e-06,-7.5367230649880445e-06,4.6447048576348514e-05,-0.00037058389331453824,-0.009583179016876638,9.802621418162191
1686962273.855885,-0.0006178329155008909,-5.8535884435101144e-06,0.00030293901416226105,0.999999763238061,-2.488766715871221e-05,-6.478160879513708e-06,2.2234870090231886e-05,-0.0005458824285659403,-0.011446234783846414,9.800940199329819
1686962273.955885,-0.0006183596935670059,-5.800257953949812e-06,0.0003032838092013547,0.9999997628082606,-5.490977795605548e-06,-8.62638365438774e-06,3.8332878906923794e-05,-0.0014213119929833453,-0.00971229483767775,9.79870619745691
1686962274.0558848,-0.0006188360357008893,-5.7632718343502545e-06,0.0003036308136510321,0.9999997624085092,9.166070336698344e-05,-1.069369661186305e-05,-4.440231836163642e-05,0.001219707614137087,-0.014685047367068901,9.801040385903557
1686962274.155885,-0.0006192905906748441,-5.748406601393037e-06,0.0003040164345167384,0.9999997620100356,-9.196835419268458e-06,-1.2307969303146676e-05,4.434705865287607e-05,0.0006810331720706196,-0.01208239798182782,9.799577008978732
1686962274.255885,-0.0006197781687688935,-5.705291270149522e-06,0.0003043078156991313,0.9999997616195838,6.181649871826148e-05,-6.272783996382107e-06,-4.836053951570835e-05,-0.00014036031565317798,-0.011911658318259712,9.7989972360229
1686962274.355885,-0.0006202277971017979,-5.68015953297597e-06,0.0003046530019751659,0.9999997612358535,-4.17228485678955e-06,-8.730431879435454e-06,3.9183999694084317e-05,6.786313683322101e-05,-0.012084795746635986,9.80001139691058
1686962274.455885,-0.0006207301906325225,-5.633283787880629e-06,0.0003049420340054991,0.9999997608362976,-8.482684362275274e-05,3.400174094360949e-05,-3.891110718761682e-05,-0.0008297635923915193,-0.012151584242891917,9.799901494205342
1686962274.5558848,-0.0006211982937581836,-5.6208618328001415e-06,0.0003052646937233056,0.9999997604472477,-7.451342212062709e-05,2.5085384623466002e-05,-1.531852558513085e-05,-0.001139656320032608,-0.011265201923300643,9.800053206610764
1686962274.655885,-0.000621623335655592,-5.596986138499028e-06,0.0003055079567632603,0.9999997601089665,-9.154666671265966e-05,5.074682265984161e-05,-4.687425019877985e-05,0.0005757515645886115,-0.014760308998772733,9.796933879132526
1686962274.755885,-0.0006220836222370131,-5.580040172078525e-06,0.00030581293055876604,0.9999997597296121,-8.311306799686332e-05,6.393856448814505e-05,-4.517447200246708e-05,0.0008231796474089348,-0.012627169890915871,9.799493407231008
1686962274.855885,-0.0006224674901115486,-5.572491992821262e-06,0.00030604347412204385,0.9999997594202525,8.693092150190726e-05,-2.6810152123189234e-05,-4.3576524227214925e-05,0.0010237794021096631,-0.014560290212217771,9.800743855821407
1686962274.955885,-0.0006229149699208744,-5.556258121730419e-06,0.00030631922176125724,0.9999997590572722,8.402619217938681e-05,-2.1479481082093588e-05,-4.6251598371934645e-05,0.0009083224965729727,-0.01465280066653464,9.80045409928239
1686962275.0558848,-0.0006233725148924678,-5.530877081647477e-06,0.00030659288725630267,0.9999997586884303,6.542034135468784e-06,-1.79432929599175e-05,4.316794430210714e-05,0.00035215987231388915,-0.012063927797723561,9.800332835417338
1686962275.155885,-0.0006237875056917088,-5.529026937961096e-06,0.00030683226915031726,0.999999758356239,-6.901974266664872e-05,1.4600438499822428e-05,-1.9000615549427027e-05,0.0001262469294473218,-0.012056950315615038,9.80110094928454
1686962275.255885,-0.0006241756373894905,-5.523291496267898e-06,0.00030711094801332456,0.999999758028537,-1.6288430618346124e-05,-9.05687534520442e-06,2.2204541819547825e-05,9.900996767442437e-05,-0.012204220039667313,9.79986055305347
1686962275.355885,-0.0006246296181227959,-5.477663032716451e-06,0.000307311903372813,0.9999997576835855,-8.259721364543471e-05,2.4697451605802624e-05,-2.187587791367321e-05,-0.00037142901572620316,-0.01186885398684813,9.800879869805602
1686962275.455885,-0.0006249858525047735,-5.470923738727242e-06,0.000307533246815789,0.9999997573929983,-5.623744497447716e-05,4.049250974233117e-06,7.122889162473597e-06,-0.0001570605787003576,-0.01206789233868252,9.79906151827644
1686962275.5558848,-0.0006254073510873623,-5.460866553023996e-06,0.0003078034890958675,0.9999997570463887,-8.388938567519024e-05,2.50190226431246e-05,-2.129704850038347e-05,-0.00036890981383352266,-0.012041781612622612,9.800132999716388
1686962275.655885,-0.0006258089347524643,-5.407544680434349e-06,0.000307986720434125,0.9999997567390284,1.855717267207428e-05,-2.332979292337207e-05,4.348295368678535e-05,-0.0010627893913435,-0.010043302695383578,9.799201134716046
1686962275.755885,-0.000626122946467653,-5.436977558064647e-06,0.0003082751722944336,0.9999997564534272,-1.3650905071175588e-05,-1.1419076138229383e-05,3.836541371320451e-05,-0.0014559448436164192,-0.009764359911010071,9.799006741828501
1686962275.855885,-0.0006265174046067302,-5.403677235667923e-06,0.00030848778137806986,0.9999997561409856,-4.162299807493778e-05,-9.060487545017072e-06,1.3745443240577974e-05,0.0001063313681805363,-0.012383326274737462,9.800312855788857
1686962275.955885,-0.0006269180980455263,-5.380484888268591e-06,0.00030870021992433,0.9999997558244318,-6.843476636717706e-05,1.1953913168654461e-05,-1.4891610352648455e-05,0.0004581882654796529,-0.011859989561539115,9.801249831640764
1686962276.0558848,-0.0006271775343412172,-5.376112865361844e-06,0.00030882779851209484,0.9999997556223846,9.903157859942217e-05,-2.545944163125842e-05,-3.697714335373061e-05,0.0010043619641986591,-0.014068578513515749,9.800925787735688
1686962276.155885,-0.0006273376347898122,-5.334774269494959e-06,0.00030827093952617764,0.9999997556940001,-8.532165990373645e-05,4.116434406095436e-05,-4.8961807143687086e-05,-0.0004689315019436477,-0.014276515962483239,9.797339459962496
1686962276.255885,-0.0006276025785946558,-5.347173312962626e-06,0.0003080402269701204,0.9999997555987851,0.00011171742660283952,-3.9839688416481016e-05,-3.9954884875002614e-05,0.002038137361483029,-0.013947436537108848,9.801294046464031
1686962276.355885,-0.0006279295680533261,-5.39905872212969e-06,0.0003080817545366698,0.9999997553804402,6.5457588402408935e-06,-1.822249018434273e-05,4.0751215371324714e-05,0.0001148512824422229,-0.01127250452863328,9.800610821818566
1686962276.455885,-0.0006281980902431935,-5.479784851435219e-06,0.00030805846236054904,0.9999997552185277,0.00010635141025393763,-4.4207659181298764e-05,-4.626005015299709e-05,0.0006634439340206542,-0.012052093161400993,9.804045136608465
1686962276.5558848,-0.0006285790111649342,-5.533652118871213e-06,0.00030813411660789993,0.9999997549555558,-2.1794113485323052e-05,-4.480751468881215e-06,6.648196921886706e-06,-0.0001505563707513274,-0.013029906410553283,9.799540918063
1686962276.655885,-0.0006289307062406992,-5.598984247174314e-06,0.00030819533235416837,0.9999997547151975,-9.241054228031148e-05,5.2621971126659526e-05,-5.191228212052568e-05,0.000792260682322698,-0.014539485318517268,9.796494155099907
1686962276.755885,-0.0006292533237458257,-5.681850611292966e-06,0.00030828270784909233,0.9999997544848415,1.0903057515424617e-06,-1.5200209996913903e-05,4.2518151259971374e-05,-0.0005236398663411506,-0.012360219489672003,9.800027094466829
1686962276.855885,-0.0006295796990851219,-5.762843452190009e-06,0.0003082999232399359,0.9999997542736446,0.00011857741434010154,-5.534654472025272e-05,-3.446780747212914e-05,0.0020273219713544564,-0.013833383502396426,9.801577596424337
1686962276.955885,-0.0006299355693685824,-5.853176328812175e-06,0.00030846064008294036,0.999999753999446,1.9523867742759374e-05,-1.932230056578843e-05,4.188214453051624e-05,0.0005177380419351405,-0.011414983481260436,9.801573955283697
1686962277.0558848,-0.0006302346348926,-5.975245584592483e-06,0.00030860581585320356,0.9999997537654958,-0.00010560089054021555,4.726600556046099e-05,-2.6801451193653914e-05,0.000830562223775306,-0.013785212855195152,9.797912290485463
1686962277.155885,-0.0006309250879668959,-5.985379878181396e-06,0.0003099328059714074,0.9999997529196516,1.4402577845629431e-05,-1.5181836005938671e-05,4.953837427378542e-05,0.00038332704322269087,-0.010840664825435622,9.80085358447803
1686962277.255885,-0.0006313646226353514,-5.962877929210282e-06,0.0003104104398289318,0.9999997524942276,-3.6108259735589794e-06,-1.03090837474127e-05,3.841310421596622e-05,0.0006740615226400368,-0.0122513973312996,9.799873885609953
1686962277.355885,-0.0006319411372312795,-5.869380329426622e-06,0.0003108032736199024,0.9999997520086065,-6.0699722724668824e-05,6.569401199202228e-05,-4.874284421354154e-05,-0.0007090026035157565,-0.0119857882594155,9.796490864299402
1686962277.455885,-0.0006323690439470373,-5.87765098817125e-06,0.00031123661578820076,0.9999997516032765,1.1314349595729905e-05,-1.3767402930553249e-05,3.772485335990557e-05,0.0008798856838850411,-0.012246242731988025,9.800239552027271
1686962277.5558848,-0.0006328590620811206,-5.834630059762019e-06,0.00031160823722509715,0.9999997511778047,2.0810637699189443e-05,-1.3059015070498905e-05,3.4696874715863755e-05,0.00037251557683594833,-0.012789574249459547,9.80022132676206
1686962277.655885,-0.0006333328873148063,-5.814524493896709e-06,0.0003119838525904286,0.9999997507608295,4.537506898373619e-06,-1.0780067325711229e-07,2.917907125660853e-05,0.000246975939748979,-0.012498246570763023,9.799886482242464
1686962277.755885,-0.0006338174317013481,-5.7767642323793905e-06,0.0003122689490433738,0.9999997503650668,-1.812484823567012e-05,-6.532533427075307e-06,4.2851425230530536e-05,0.0002697149065671777,-0.012322573514278394,9.80002449026703
1686962277.855885,-0.0006343099776606557,-5.746222906604567e-06,0.00031262260392214626,0.9999997499424391,-1.0746933847839352e-05,-1.1140600917906355e-05,4.1973619338329455e-05,0.00028165530169363065,-0.012527913370808238,9.800020359194704
1686962277.955885,-0.000634815005134077,-5.702016813067417e-06,0.0003129300357902531,0.9999997495260632,-8.588967016163456e-05,6.0437389682439675e-05,-4.6643811310513055e-05,0.0005859422212467358,-0.014952017262279509,9.797421016391578
1686962278.0558848,-0.000635270627865529,-5.675248237730535e-06,0.00031322956306396827,0.9999997491430994,-7.511928134891175e-05,3.360561667342447e-05,-1.6241369007876155e-05,-0.0008257140475861936,-0.011776292389616678,9.800813316078152
1686962278.155885,-0.0006357316905352991,-5.658199722023744e-06,0.0003135353656280077,0.9999997487543569,-1.6074008949628713e-05,4.7165401782491026e-05,-6.19874735322474e-05,0.002166455298333045,-0.014031040691135924,9.798099852335968
1686962278.255885,-0.0006361897317962071,-5.645207696217921e-06,0.0003138460561502099,0.9999997483656733,-5.7440736839851415e-05,2.736517694271168e-05,-8.05353017948749e-06,-3.829371252481849e-05,-0.012102442711443888,9.801305929854538
1686962278.355885,-0.000636611906882698,-5.627593423999254e-06,0.0003141165528403249,0.9999997480121691,-7.423003878056887e-06,-1.3149920856514287e-05,2.7191770132489455e-05,-5.9046663045321166e-05,-0.01208812805054789,9.800575495348983
1686962278.455885,-0.0006370991810431212,-5.60072107564573e-06,0.0003143874452846491,0.999999747616868,-5.9240450131658166e-05,2.1472974022258594e-05,-9.196082638807586e-06,-0.0008166574857296477,-0.011774754960667875,9.801180478971188
1686962278.5558848,-0.0006375532774546054,-5.576012307688653e-06,0.00031464811126080363,0.9999997472456145,5.323971584393065e-06,-1.1577925361944129e-05,3.734337534095059e-05,0.0009083514712553121,-0.012222312699005363,9.80021577246598
1686962278.655885,-0.0006379872537924574,-5.549651509665505e-06,0.00031486174692916147,0.9999997469017409,-4.0863338635323076e-05,1.8192178962674025e-07,9.47055653549359e-06,-0.0019514042917974583,-0.010914441005270075,9.801887644144868
1686962278.755885,-0.0006384260064688439,-5.526806964080868e-06,0.00031512582853665376,0.9999997465386684,-4.209329958554305e-06,-1.0869436198632558e-05,3.9325803303235746e-05,-0.0022406424207865434,-0.010292874979955718,9.80168077626956
1686962278.855885,-0.0006388210946187706,-5.5387724091876e-06,0.0003154082734926642,0.999999746197244,2.1900217552674367e-06,-1.4900966215620164e-05,1.4560845385480796e-05,-0.0013159263725472765,-0.011108492501011953,9.801961393805518
1686962278.955885,-0.0006392049345283463,-5.515654133605616e-06,0.0003156119750491906,0.999999745887823,-6.026915734860941e-06,-1.3018338463164535e-05,2.1867825158081796e-05,-7.976105779719941e-05,-0.012297828357309037,9.800159120959272
1686962279.0558848,-0.0006396366742366118,-5.4828038888497705e-06,0.00031582186343895535,0.999999745545675,-8.753459462619162e-05,2.9324930595634534e-05,-2.4198085757573898e-05,-0.00025929823314110097,-0.01238313094237552,9.799960764909986
1686962279.155885,-0.0006400353281538655,-5.454408962574975e-06,0.0003160498343286396,0.9999997452187328,-9.356138390794915e-05,4.944266482418865e-05,-4.6916702868468014e-05,-0.0007614840072295372,-0.01239861687790487,9.797197683971408
1686962279.255885,-0.0006404151552147619,-5.444447053095157e-06,0.00031628954902184836,0.9999997448998217,-9.335138774202257e-05,3.816319932019766e-05,-3.3427011826072657e-05,-0.00040821076783146025,-0.012208520808069211,9.799799456385811
1686962279.355885,-0.0006407693920274686,-5.43099460972044e-06,0.00031650711526961937,0.9999997446041357,-2.687398591986347e-07,2.4402267415075848e-06,3.980003266131491e-05,0.0009647119381770588,-0.011684557678272148,9.800540947379691
1686962279.455885,-0.0006410921239420254,-5.444593727022419e-06,0.0003167774381289814,0.9999997443116172,-6.969756875137977e-06,-1.1695112623783127e-05,2.4293994010732522e-05,-0.0018634584101072946,-0.010695673601625775,9.802159844626926
1686962279.5558848,-0.0006414426639922507,-5.411200015964562e-06,0.0003169675583017217,0.9999997440267646,1.2824492390639893e-05,-1.262652455966042e-05,4.8114269416715514e-05,-0.0006490677897616627,-0.010272355172523784,9.801201619120697
1686962279.655885,-0.0006417072158960009,-5.419951072362571e-06,0.0003170227271338365,0.9999997438394992,-1.1133691841689349e-05,-6.0974289013346364e-06,2.6418399310795658e-05,0.0004968734491020603,-0.011853619908867177,9.799964026196198
1686962279.755885,-0.0006417641608408293,-5.3974792345875455e-06,0.00031639191423637157,0.9999997440028602,-7.550777492507948e-06,-3.5458537298693314e-07,-5.517563958004359e-06,8.710151305615407e-05,-0.012586342223522092,9.799991073631551
1686962279.855885,-0.0006420220730157279,-5.436655162936707e-06,0.00031618031842779715,0.9999997439040207,-7.454465462680493e-06,-1.4731741648946557e-06,-5.35306795084491e-07,0.00012008686183606591,-0.012581744411478045,9.799995336796867
1686962279.955885,-0.0006423525653495692,-5.515794404635578e-06,0.00031613496698231625,0.9999997437056873,-7.893216714585493e-06,-1.573455222931237e-06,4.359415079453141e-06,8.183717836969119e-05,-0.012603332491767401,9.799985507742212
1686962280.0558848,-0.0006427022293686851,-5.5807106848267406e-06,0.0003161753772058424,0.9999997434678826,-7.70125245589493e-06,-1.466299901258596e-06,4.084164793118798e-06,0.00010379061639351738,-0.012597288660967348,9.799991752830737
1686962280.155885,-0.0006430497067065366,-5.643390576404255e-06,0.0003162065746612402,0.9999997432342816,-7.725479338516035e-06,-1.4528903479309615e-06,4.040134367201789e-06,0.00010565907503886367,-0.012603778428732315,9.799991962798384
1686962280.255885,-0.0006434054772922029,-5.705918238132026e-06,0.0003162522947214869,0.9999997429906273,-8.093116553291405e-06,-1.4863285980209863e-06,4.771324304085966e-06,0.00011075101278820464,-0.012611059553473268,9.79999267989446
1686962280.355885,-0.0006437717917945634,-5.773507125301132e-06,0.00031631555817573925,0.9999997427344741,-8.09089574647588e-06,-1.6371631248632937e-06,4.747058895160138e-06,0.00010590648155842622,-0.012619716973599291,9.799991551115212
1686962280.455885,-0.0006441335521701158,-5.849961645862966e-06,0.0003163711261474369,0.9999997424834947,-7.952902465954964e-06,-1.8859102362194344e-06,4.463297544836323e-06,0.00010202229207155468,-0.012629174519785357,9.799990958561153
1686962280.5558848,-0.0006444886097934834,-5.941245409637974e-06,0.00031641836537613967,0.9999997422392426,-7.946033391847287e-06,-2.27488682537588e-06,4.670339114148414e-06,0.00010965460320137343,-0.012630540282533105,9.799992397712678
1686962280.655885,-0.0006446171209091172,-5.829436696299916e-06,0.00031637761581111446,0.9999997421699615,-9.984267164571078e-06,-2.8444908348399924e-06,7.6098169029794954e-06,-0.00011503820034512538,-0.012746252759064866,9.799907504474232
1686962280.755885,-0.0006446173479061053,-5.587932352859824e-06,0.00031627188967560816,0.9999997422046375,-4.69009768398796e-05,-2.5937847713798764e-05,5.623323760604873e-05,-0.0011108486363075936,-0.011208549246939186,9.800353403713657
1686962280.855885,-0.0006448608019799658,-5.549445272476419e-06,0.00031641546105778647,0.9999997420024697,-9.282196706813714e-06,-2.857844584303968e-06,6.4054522852682404e-06,-4.201260255638973e-05,-0.012735100092814864,9.799942406384421
1686962280.955885,-0.0006449480073662838,-5.377615515872494e-06,0.000316442213776395,0.999999741938704,-1.006096129911063e-05,-3.2626099445875503e-06,7.560797630309731e-06,-9.062241341709646e-05,-0.012739893282069576,9.799900281226547
1686962281.0558848,-0.0006450440862206094,-5.220680615641181e-06,0.0003164689667057501,0.9999997418690989,-1.0713917006471219e-05,-3.6914926234796076e-06,8.632294831334636e-06,-1.355034693484727e-05,-0.012719169777633,9.799864191652468
1686962281.155885,-0.000645156486766734,-5.080860933259786e-06,0.0003165065586562719,0.9999997417854122,-1.0200028769085893e-05,-3.601030698637584e-06,7.745373912231125e-06,-5.706109604938703e-05,-0.012727063086660167,9.799886467604479
1686962281.255885,-0.0006450290996530947,-4.7705655404075716e-06,0.00031637086475882494,0.9999997419120558,0.0004967550896418936,0.00036791017855048055,-0.0003570903408927782,0.00019997414223187445,-0.025624137172467303,9.789955684248685
1686962281.355885,-0.0006453100640407205,-4.7571545055806966e-06,0.00031654423544200984,0.9999997416759855,-1.4559725520404011e-05,-7.4335858175186645e-06,1.434913449005809e-05,0.0017102360939851343,-0.014129042264996153,9.799796164378591
1686962281.455885,-0.0006452652053383968,-4.515169715507077e-06,0.00031644371507981233,0.9999997417378683,-5.2257433295403705e-05,-3.589378730957528e-05,-2.1704802062393895e-05,-0.0014849109869310762,-0.012703801807711875,9.800380035038106
1686962281.5558848,-0.0006455561099673126,-4.520308919672533e-06,0.0003166575846364931,0.9999997414823915,-1.0678921181885243e-05,-4.378488442001656e-06,8.029621812081353e-06,-4.168475661109104e-05,-0.01271945057091061,9.799875406736852
1686962281.655885,-0.00064565513106683,-4.388042329225838e-06,0.0003167031390260132,0.9999997414046259,-1.069526265972037e-05,-4.531565982676141e-06,7.961002202737227e-06,-2.591199928805232e-05,-0.012715693795041083,9.799880219075504
1686962281.755885,-0.0006456240374499768,-4.17548612231123e-06,0.00031662319921411713,0.9999997414509252,-3.545123966335236e-05,-2.4112673905274394e-05,3.2407573264159494e-05,-0.0006289143003091697,-0.011992186603451837,9.800270996517716
1686962281.855885,-0.0006457841810523333,-4.153387868061201e-06,0.00031669325094336065,0.9999997413254293,-1.2342788734981646e-05,-6.224377295129163e-06,1.1208533639986575e-05,0.00043557605456021,-0.01300868155274195,9.799819301405062
1686962281.955885,-0.0006458044201201206,-4.106054243487967e-06,0.0003166218931081772,0.9999997413351506,-1.2338429105954665e-05,-7.558019498347885e-06,1.1265177300621499e-05,0.0005904356277511731,-0.013075030563479929,9.799796441041062
1686962282.0558848,-0.0006457455042881634,-4.0723809123660685e-06,0.0003164856861676919,0.9999997414164515,-1.913934094809317e-05,-1.3982935959461711e-05,2.0138157260402674e-05,-3.508146696062545e-05,-0.01245975524121438,9.80008838731395
1686962282.155885,-0.0006456107914208473,-4.040617699141757e-06,0.00031632470536926304,0.9999997415544967,-3.560522777363775e-05,-3.437826055258242e-05,2.6581702694894096e-05,-0.0005457219826607814,-0.012595907678445,9.800174520008575
1686962282.255885,-0.0006455208803654425,-4.108069251454389e-06,0.00031626140454811894,0.999999741632287,-2.7742953718757956e-05,-2.564577838007468e-05,2.9887489414682958e-05,-6.748710871996767e-05,-0.01257349902199097,9.800045945933585
1686962282.355885,-0.0006453621026184221,-4.1907155243239956e-06,0.00031617769125612434,0.9999997417608978,-2.0402095564487735e-05,-2.015170589764457e-05,2.3689217670410227e-05,0.0002630557551363064,-0.01273283278850708,9.79996942246279
1686962282.455885,-0.0006450233946163565,-4.198796057717691e-06,0.000315966807206152,0.9999997420460505,0.00017770016483716387,0.00015155185863722215,-0.0001427132638645992,-0.0009817737985437758,-0.018499364950616364,9.795125095019573
1686962282.5558848,-0.000644769807025118,-4.358224348370878e-06,0.00031582739623997597,0.9999997422529456,-2.4990214464424592e-05,-4.236528900240819e-05,6.395522281291425e-07,-0.0005342845889785213,-0.013047133171969781,9.800025889370398
1686962282.655885,-0.0006444563762127225,-4.518657094822479e-06,0.0003156523621273644,0.9999997425095406,9.723145386839029e-05,9.099454579417422e-05,-8.39435538558756e-05,-0.0007592926405014077,-0.01629653055578871,9.796403989746626
1686962282.755885,-0.0006442105951277526,-4.79985490183259e-06,0.0003155108946264812,0.9999997427112399,-2.559598557252567e-05,-4.8365625751151465e-05,1.4838185025883301e-05,0.0007566615326076661,-0.009408710598444961,9.803102386468582
1686962282.855885,-0.0006439900235194104,-5.130950835084238e-06,0.000315366772702677,0.9999997428971279,-2.22033804226276e-05,-4.79766310949307e-05,1.5667206910024136e-05,-0.0007007395610931625,-0.012754008160045446,9.79997438287561
1686962282.955885,-0.0006438243326219391,-5.5392629044389746e-06,0.0003152470172485922,0.9999997430393988,-2.140057152223803e-05,-4.017162157414889e-05,3.485535707353774e-05,0.000980853954356122,-0.012739073734191057,9.799992079834258
1686962283.0558848,-0.0006436544278466386,-5.936290717988363e-06,0.0003150832276848332,0.9999997431981159,-1.552889197629337e-05,-4.9935986995425055e-05,1.1667425103193995e-05,0.0004355037051690167,-0.01271172810475475,9.800007131799251
1686962283.155885,-0.0006435381074592133,-6.403427482109015e-06,0.00031496047114397944,0.9999997433087682,-1.7278051697942185e-05,-4.431552734868548e-05,2.9067194629454014e-05,0.0014301320163486312,-0.012617610866954954,9.80000969832346
1686962283.255885,-0.0001421802787327459,-0.0012845968955691475,-0.0031530096118316067,0.9999941940461314,-0.01673894379926066,0.45809852915800897,-0.14926748507175888,1.0700636344891536,-0.3402663607078955,6.2140001825790385
1686962283.355885,-0.00023286394680738129,-0.0006365174822051962,-0.006647203160953068,0.999977677405858,1.9390084836785995e-05,3.35314031254179e-05,-2.8640279272573478e-05,0.018664689899700826,-0.007867963801015784,9.800629267828532
1686962283.455885,-0.0002308043201525779,-0.0006345159148943355,-0.006647191212655582,0.9999776792348428,4.6795017555352214e-05,4.556500254543334e-05,-2.000655517434921e-05,0.012896686250763876,-0.004394168842813727,9.799405683399957
1686962283.5558848,-0.0002286228753483578,-0.0006333168916845942,-0.006648617138484707,0.9999776710164291,-0.00012136973832086335,-0.00019887861524284616,1.9426479185585126e-05,0.011284290443515761,-0.0030468667766987076,9.801819566797514
1686962283.655885,-0.00022812943634551827,-0.0006361660348052714,-0.006648566360153553,0.9999776696582234,1.936480109294637e-06,-9.494312773059326e-05,-1.4734349723462835e-05,0.011250292523919373,-0.004925181656860071,9.800735115375767
1686962283.755885,-0.00022547971884359947,-0.0006378476390456636,-0.006648586593954649,0.9999776690534586,5.983914240124462e-05,-3.47171979006798e-05,-3.3004022134110533e-06,0.010890843412192456,-0.002721968661926334,9.800716056782345
1686962283.855885,-0.0002223003443480641,-0.0006392379612840993,-0.0066493453780569894,0.9999776638322624,-9.990448016090295e-06,-6.0962721296805165e-05,-3.196319229443663e-05,0.010748918363426441,-0.0032068312315080855,9.799263891921951
1686962283.955885,-0.00022062950442328316,-0.0006412081125678686,-0.006649507737114914,0.9999776618613199,8.34091012502571e-06,-3.606128735742933e-05,5.1845376660763156e-05,0.013576636185429192,-0.002565631423308109,9.800206451725776
1686962284.0558848,-0.00022238298320290042,-0.000646187788732204,-0.006649553080037956,0.9999776579659099,8.84016011708258e-05,-2.0480341833306733e-06,5.116717244055578e-05,0.020723040825040555,-0.00901999046150553,9.800540772510818
1686962284.155885,-0.00022445379638512674,-0.0006499895227039874,-0.006649436360563459,0.9999776558154689,-0.0002615511505148058,-0.0002568610010446405,-4.359872969472019e-05,0.007078695514278921,-0.0033671744118374024,9.810223048672572
1686962284.255885,-0.00022845289645452197,-0.0006560112963484229,-0.006648296178181969,0.9999776585586203,-0.00035711515037237257,-0.00022271444624951956,-2.7886729918326034e-05,0.025876787486555024,-0.0069628693250589424,9.844636851449224
1686962284.355885,-0.00022472727230969991,-0.000654596271969994,-0.006647607089983767,0.9999776649112475,0.00024175135440979655,0.0005208145164926335,7.017789398064487e-05,-0.0016018111099437658,-0.015812598496010695,9.80442233329461
1686962284.455885,-0.00022535193904475227,-0.0006547097538635264,-0.006647964940374025,0.9999776623174106,0.0003590546303361911,0.0001921737505925265,-3.0082530833771915e-05,0.011154252708923437,-0.0047147099487023685,9.798536399132287
1686962284.5558848,-0.00013563766995868833,0.003010398571549357,-0.006336814650636397,0.9999753816384414,0.0020046082775342245,0.35094300478750406,-0.0009166193239041142,-5.2096616639633595,1.5259940961400278,7.885942389145601
1686962284.655885,-7.032505924112884e-05,-8.017142042746284e-05,-0.0064968607352965,0.9999788894909309,0.00038155908939212327,-0.00018830732065689792,0.0004883856757299136,2.690861588886454,0.3485809526106764,11.25292264058589
1686962284.755885,-5.92256601602953e-05,-7.6848306566728e-05,-0.006492513470757242,0.9999789187055351,0.00024283269158858982,1.9432278629771815e-05,2.7381681125074505e-05,0.0012139844191384826,-0.001083212060397976,9.800130069096621
